session_id,timestamp,label,quaternion_w,quaternion_x,quaternion_y,quaternion_z,position_x,position_y,position_z,accelerometer_x,accelerometer_y,accelerometer_z,gyroscope_x,gyroscope_y,gyroscope_z,magnetometer_x,magnetometer_y,magnetometer_z,linear_acceleration_x,linear_acceleration_y,linear_acceleration_z,gravity_x,gravity_y,gravity_z
1_20251106_212436,1762435439719,1,0.4377020001411438,0.486717164516449,0.6331652402877808,0.4130679965019226,0.047882333397865295,2.7818222045898438,1.200774908065796,-1.7220749855041504,10.19127082824707,-2.648158073425293,-0.0016875145956873894,-0.2022343873977661,0.09833013266324997,37.58760452270508,-15.174797058105469,8.987285614013672,0.39760470390319824,1.0270137786865234,-0.4613184928894043,-2.1196796894073486,9.164257049560547,-2.1868395805358887
1_20251106_212436,1762435439739,1,0.43818002939224243,0.4877917468547821,0.6318020224571228,0.41338077187538147,0.047882333397865295,2.7818222045898438,1.200774908065796,-1.7220749855041504,10.19127082824707,-2.648158073425293,-0.07315868139266968,-0.046463895589113235,0.12337559461593628,37.58760452270508,-15.174797058105469,8.987285614013672,0.39760470390319824,1.0270137786865234,-0.4613184928894043,-2.1196796894073486,9.164257049560547,-2.1868395805358887
1_20251106_212436,1762435439761,1,0.43848246335983276,0.48854342103004456,0.6305904984474182,0.4140217900276184,0.028822194784879684,2.8064756393432617,1.1568412780761719,-1.4371771812438965,10.167329788208008,-2.5727438926696777,-0.05849793553352356,-0.03913351893424988,0.043963171541690826,37.599849700927734,-15.208702087402344,8.689626693725586,0.5460020303726196,0.8024578094482422,-0.30872344970703125,-1.9831792116165161,9.364871978759766,-2.2640204429626465
1_20251106_212436,1762435439778,1,0.4389019012451172,0.48879605531692505,0.6298701167106628,0.4143756628036499,0.004412740468978882,2.8510143756866455,1.0862126350402832,-1.3246545791625977,10.039246559143066,-2.4338865280151367,-0.05849793553352356,-0.03913351893424988,0.043963171541690826,37.599849700927734,-15.208702087402344,8.689626693725586,0.40651655197143555,0.40536022186279297,-0.09205126762390137,-1.7311711311340332,9.633886337280273,-2.3418352603912354
1_20251106_212436,1762435439796,1,0.4396648108959198,0.4885546565055847,0.6296465992927551,0.41419124603271484,-0.005569403059780598,2.8717756271362305,1.0541719198226929,-1.5868083238601685,9.716043472290039,-2.44465970993042,-0.037117667496204376,0.010346520692110062,-0.128911554813385,37.58491897583008,-15.282821655273438,8.484807968139648,0.11549031734466553,0.06572628021240234,-0.0822594165802002,-1.702298641204834,9.650317192077637,-2.3624002933502197
1_20251106_212436,1762435439816,1,0.44039270281791687,0.4877120554447174,0.6299704909324646,0.4139183759689331,-0.005569403059780598,2.8717756271362305,1.0541719198226929,-1.5868083238601685,9.716043472290039,-2.44465970993042,-0.06949350237846375,0.07448731362819672,-0.10569868981838226,37.571407318115234,-15.320205688476562,8.375394821166992,0.11549031734466553,0.06572628021240234,-0.0822594165802002,-1.702298641204834,9.650317192077637,-2.3624002933502197
1_20251106_212436,1762435439835,1,0.44077250361442566,0.48652225732803345,0.6304203867912292,0.41422921419143677,-0.016972046345472336,2.894609212875366,1.018127679824829,-1.8034743070602417,9.597536087036133,-2.521270751953125,-0.10431278496980667,0.0854828804731369,-0.003684275783598423,37.566558837890625,-15.419586181640625,8.265153884887695,-0.0809406042098999,-0.042224884033203125,-0.12709641456604004,-1.7225337028503418,9.639760971069336,-2.394174337387085
1_20251106_212436,1762435439853,1,0.440926194190979,0.4858402609825134,0.6302603483200073,0.41510868072509766,-0.034935109317302704,2.930408477783203,0.9605358839035034,-1.5760349035263062,9.537681579589844,-2.2950286865234375,-0.10431278496980667,0.0854828804731369,-0.003684275783598423,37.611976623535156,-15.478927612304688,8.238763809204102,0.12248849868774414,-0.07184314727783203,0.09639596939086914,-1.6985234022140503,9.609524726867676,-2.3914246559143066
1_20251106_212436,1762435439872,1,0.4410605728626251,0.486246258020401,0.6294774413108826,0.41567811369895935,-0.04296876862645149,2.947535991668701,0.9326893091201782,-1.5030150413513184,9.528106689453125,-2.3560781478881836,0.031299181282520294,-0.06723329424858093,0.13376028835773468,37.6346321105957,-15.514472961425781,8.184886932373047,0.15640676021575928,-0.06513404846191406,0.028277158737182617,-1.6594218015670776,9.593240737915039,-2.384355306625366
1_20251106_212436,1762435439892,1,0.440822571516037,0.48736464977264404,0.6286941170692444,0.4158063232898712,-0.050512395799160004,2.9644546508789062,0.90439373254776,-1.4982267618179321,9.524515151977539,-2.5320444107055664,0.031299181282520294,-0.06723329424858093,0.13376028835773468,37.65578842163086,-15.563652038574219,8.238876342773438,0.12895596027374268,-0.05498027801513672,-0.11815118789672852,-1.6271827220916748,9.579495429992676,-2.413893222808838
1_20251106_212436,1762435439911,1,0.44051894545555115,0.48891761898994446,0.6278416514396667,0.41559290885925293,-0.057252440601587296,2.979612350463867,0.8783292174339294,-1.602370023727417,9.53887939453125,-2.6062612533569336,0.04290561378002167,-0.014698932878673077,0.14047980308532715,37.67924499511719,-15.586502075195312,8.171747207641602,0.01985025405883789,-0.032492637634277344,-0.15389442443847656,-1.6222202777862549,9.571372032165527,-2.452366828918457
1_20251106_212436,1762435439931,1,0.439938485622406,0.4900745451450348,0.6272080540657043,0.4158017635345459,-0.057252440601587296,2.979612350463867,0.8783292174339294,-1.602370023727417,9.53887939453125,-2.6062612533569336,-0.007796161808073521,0.10258709639310837,0.15697313845157623,37.626075744628906,-15.665290832519531,8.195234298706055,0.01985025405883789,-0.032492637634277344,-0.15389442443847656,-1.6222202777862549,9.571372032165527,-2.452366828918457
1_20251106_212436,1762435439950,1,0.43887320160865784,0.490696519613266,0.626762330532074,0.4168647825717926,-0.06882385164499283,3.0086915493011475,0.8256219029426575,-1.327048659324646,9.566411972045898,-2.9893174171447754,-0.0615522563457489,0.13496293127536774,0.19301415979862213,37.62385940551758,-15.703094482421875,8.207958221435547,0.21897971630096436,-0.008728981018066406,-0.38080477714538574,-1.5460283756256104,9.575140953063965,-2.6085126399993896
1_20251106_212436,1762435439969,1,0.437699556350708,0.4912054240703583,0.6260716915130615,0.4185338616371155,-0.0725962221622467,3.0220253467559814,0.8008276224136353,-1.1594617366790771,9.67654037475586,-2.7774393558502197,-0.0927063524723053,0.03966803103685379,0.24860285222530365,37.58135223388672,-15.817955017089844,8.150045394897461,0.3092533349990845,0.08111953735351562,-0.13514137268066406,-1.4687150716781616,9.595420837402344,-2.6422979831695557
1_20251106_212436,1762435439987,1,0.43698352575302124,0.4923645555973053,0.6245870590209961,0.42013514041900635,-0.07482897490262985,3.0342490673065186,0.7790731191635132,-0.9966630935668945,9.686116218566895,-2.414733409881592,-0.046891503036022186,-0.08494837582111359,0.29991549253463745,37.53976058959961,-15.908370971679688,8.160242080688477,0.37764155864715576,0.0725564956665039,0.1820516586303711,-1.3743046522140503,9.61355972290039,-2.596785068511963
1_20251106_212436,1762435440007,1,0.43658775091171265,0.49449285864830017,0.6224960088729858,0.42114925384521484,-0.07550279796123505,3.047478199005127,0.7570892572402954,-0.8206967711448669,9.720830917358398,-2.2746787071228027,0.0361860990524292,-0.15336522459983826,0.3133545219898224,37.39886474609375,-16.042404174804688,8.125175476074219,0.4428864121437073,0.08581733703613281,0.25768518447875977,-1.2635831832885742,9.635013580322266,-2.5323638916015625
1_20251106_212436,1762435440026,1,0.43615028262138367,0.4972492754459381,0.6203688383102417,0.42149561643600464,-0.07550279796123505,3.047478199005127,0.7570892572402954,-0.8206967711448669,9.720830917358398,-2.2746787071228027,0.06611847877502441,-0.13381755352020264,0.2809787094593048,37.316078186035156,-16.222702026367188,8.09150505065918,0.4428864121437073,0.08581733703613281,0.25768518447875977,-1.2635831832885742,9.635013580322266,-2.5323638916015625
1_20251106_212436,1762435440045,1,0.4355894923210144,0.49986398220062256,0.6185532212257385,0.4216511845588684,-0.0720948800444603,3.0707623958587646,0.7198684215545654,-0.6207895278930664,9.561624526977539,-2.3860042095184326,0.04840339720249176,-0.07334193587303162,0.22172480821609497,37.1607666015625,-16.406951904296875,7.973794937133789,0.42058122158050537,-0.06344032287597656,0.08102941513061523,-1.0413707494735718,9.625064849853516,-2.467033624649048
1_20251106_212436,1762435440063,1,0.4349706172943115,0.5018205046653748,0.6171927452087402,0.4219595491886139,-0.06891287863254547,3.080427646636963,0.7039567232131958,-0.6243807077407837,9.450298309326172,-2.362063407897949,-0.0035201087594032288,-0.02874881960451603,0.14964276552200317,37.0422248840332,-16.576934814453125,7.9253997802734375,0.3335920572280884,-0.13981342315673828,0.08397626876831055,-0.9579727649688721,9.59011173248291,-2.4460396766662598
1_20251106_212436,1762435440084,1,0.43463340401649475,0.5030013918876648,0.6161330342292786,0.4224493205547333,-0.06478743255138397,3.089735269546509,0.6879913210868835,-0.7057800889015198,9.295878410339355,-2.172929525375366,-0.01634826883673668,-0.01836412213742733,0.08183678984642029,37.0069694519043,-16.778900146484375,7.866130828857422,0.2017541527748108,-0.23538684844970703,0.21848821640014648,-0.9075342416763306,9.531265258789062,-2.3914177417755127
1_20251106_212436,1762435440102,1,0.4345567524433136,0.5036607384681702,0.6154124736785889,0.42279279232025146,-0.06109856069087982,3.096980571746826,0.6741557121276855,-0.9200518727302551,9.110336303710938,-2.1825060844421387,0.03252091258764267,-0.04035525023937225,0.03907625004649162,36.93345260620117,-17.008766174316406,7.84541130065918,-0.010014116764068604,-0.3367433547973633,0.1671292781829834,-0.9100377559661865,9.4470796585083,-2.349635362625122
1_20251106_212436,1762435440121,1,0.43457886576652527,0.5043285489082336,0.6149999499320984,0.4225741922855377,-0.058005861937999725,3.102473258972168,0.6609022617340088,-1.0601067543029785,8.94035530090332,-2.3895955085754395,0.08322268724441528,-0.07639626413583755,0.05679132789373398,36.863853454589844,-17.175308227539062,7.771945953369141,-0.1200551986694336,-0.4053792953491211,-0.031968116760253906,-0.9400515556335449,9.345734596252441,-2.3576273918151855
1_20251106_212436,1762435440139,1,0.4344936013221741,0.5053874850273132,0.6146202683448792,0.42194870114326477,-0.0556713342666626,3.1060972213745117,0.6485063433647156,-1.1223533153533936,8.809877395629883,-2.5476059913635254,0.1027703583240509,-0.11976766586303711,0.08428024500608444,36.820640563964844,-17.302719116210938,7.713769912719727,-0.14584136009216309,-0.42868614196777344,-0.15198278427124023,-0.9765119552612305,9.238563537597656,-2.395623207092285
1_20251106_212436,1762435440162,1,0.4344930946826935,0.5069311857223511,0.6139923930168152,0.42101049423217773,-0.0556713342666626,3.1060972213745117,0.6485063433647156,-1.1223533153533936,8.809877395629883,-2.5476059913635254,0.10154862701892853,-0.15886300802230835,0.09038889408111572,36.81168746948242,-17.454078674316406,7.7781829833984375,-0.14584136009216309,-0.42868614196777344,-0.15198278427124023,-0.9765119552612305,9.238563537597656,-2.395623207092285
1_20251106_212436,1762435440179,1,0.43468451499938965,0.5086619853973389,0.6131973266601562,0.41988253593444824,-0.053887199610471725,3.1087899208068848,0.6316940784454346,-1.2444522380828857,8.80508804321289,-2.649355173110962,0.087498739361763,-0.13748273253440857,0.07023035734891891,36.81168746948242,-17.454078674316406,7.7781829833984375,-0.21435225009918213,-0.34678077697753906,-0.20298552513122559,-1.0300999879837036,9.15186882019043,-2.4463696479797363
1_20251106_212436,1762435440199,1,0.43485379219055176,0.5100493431091309,0.6126118898391724,0.4188776910305023,-0.05511480197310448,3.110170364379883,0.6056007146835327,-1.7412277460098267,8.756009101867676,-2.962982177734375,0.087498739361763,-0.13748273253440857,0.07023035734891891,36.71891784667969,-17.608970642089844,7.636421203613281,-0.49630022048950195,-0.2652254104614258,-0.358978271484375,-1.2449275255203247,9.021234512329102,-2.60400390625
1_20251106_212436,1762435440216,1,0.4348427951335907,0.5110543370246887,0.6120689511299133,0.41845759749412537,-0.05764942243695259,3.109584331512451,0.5930559635162354,-1.8345975875854492,8.65066909790039,-2.8911590576171875,-0.04933495819568634,0.024396410211920738,0.17835339903831482,36.71891784667969,-17.608970642089844,7.636421203613281,-0.4717360734939575,-0.29645252227783203,-0.22972416877746582,-1.3628615140914917,8.947121620178223,-2.6614348888397217
1_20251106_212436,1762435440237,1,0.434456467628479,0.5120068192481995,0.6110101342201233,0.4192412495613098,-0.06122125685214996,3.1083409786224365,0.5790393352508545,-1.6059612035751343,8.753615379333496,-2.660128593444824,-0.10919970273971558,0.05249618738889694,0.33168044686317444,36.67540740966797,-17.736785888671875,7.618793487548828,-0.19447970390319824,-0.15480518341064453,0.00104522705078125,-1.411481499671936,8.90842056274414,-2.6611738204956055
1_20251106_212436,1762435440255,1,0.4335510730743408,0.5133843421936035,0.6091563105583191,0.42118707299232483,-0.06122125685214996,3.1083409786224365,0.5790393352508545,-1.6059612035751343,8.753615379333496,-2.660128593444824,-0.08843030035495758,0.03233765438199043,0.43369486927986145,36.58768081665039,-17.792037963867188,7.560239791870117,-0.19447970390319824,-0.15480518341064453,0.00104522705078125,-1.411481499671936,8.90842056274414,-2.6611738204956055
1_20251106_212436,1762435440274,1,0.4322578012943268,0.5155143141746521,0.6067487001419067,0.42338430881500244,-0.06435054540634155,3.1067001819610596,0.5664145350456238,-1.3246545791625977,8.757205963134766,-2.4338862895965576,-0.06460657715797424,0.029894191771745682,0.46912503242492676,36.484642028808594,-17.910324096679688,7.445810317993164,0.06946158409118652,-0.1209716796875,0.18183016777038574,-1.3941161632537842,8.878177642822266,-2.6157164573669434
1_20251106_212436,1762435440293,1,0.43071088194847107,0.5179491639137268,0.6041989326477051,0.42562949657440186,-0.06661303341388702,3.104628086090088,0.5554866790771484,-1.1893879175186157,8.662639617919922,-2.445856809616089,-0.09881500154733658,0.06227002292871475,0.47340109944343567,36.40085220336914,-18.10358428955078,7.452425003051758,0.16378259658813477,-0.17243099212646484,0.13588762283325195,-1.3531705141067505,8.835070610046387,-2.581744432449341
1_20251106_212436,1762435440313,1,0.4290695786476135,0.5200812816619873,0.6016571521759033,0.4282796084880829,-0.06914092600345612,3.099259853363037,0.5363040566444397,-1.0852446556091309,8.714113235473633,-2.4662065505981445,-0.1495167762041092,0.1312977373600006,0.43491658568382263,36.26428985595703,-18.375091552734375,7.428461074829102,0.18296420574188232,-0.05864238739013672,0.06743240356445312,-1.2682088613510132,8.77275562286377,-2.5336389541625977
1_20251106_212436,1762435440331,1,0.42735084891319275,0.5213667750358582,0.5994810461997986,0.4314747452735901,-0.06928779929876328,3.0974035263061523,0.5282889008522034,-0.9954659938812256,9.010980606079102,-2.4207186698913574,-0.23992475867271423,0.2192622721195221,0.34511950612068176,36.1422119140625,-18.619476318359375,7.283868789672852,0.2181943655014038,0.1905803680419922,0.09033632278442383,-1.2136603593826294,8.82040023803711,-2.5110549926757812
1_20251106_212436,1762435440351,1,0.4260377883911133,0.5215468406677246,0.5976049304008484,0.43514248728752136,-0.06922348588705063,3.096747636795044,0.5210747122764587,-1.1415060758590698,9.24919319152832,-2.101106643676758,-0.3333870470523834,0.32066577672958374,0.18507292866706848,36.026493072509766,-18.952178955078125,7.2595672607421875,0.057723402976989746,0.3430347442626953,0.3279588222503662,-1.1992294788360596,8.906158447265625,-2.429065465927124
1_20251106_212436,1762435440369,1,0.4252978563308716,0.5200374126434326,0.596492350101471,0.4391806423664093,-0.06922348588705063,3.096747636795044,0.5210747122764587,-1.1415060758590698,9.24919319152832,-2.101106643676758,-0.3511021137237549,0.4703276455402374,0.03907625377178192,35.87534713745117,-19.250946044921875,7.369747161865234,0.057723402976989746,0.3430347442626953,0.3279588222503662,-1.1992294788360596,8.906158447265625,-2.429065465927124
1_20251106_212436,1762435440389,1,0.42444345355033875,0.5169055461883545,0.5966274738311768,0.44349977374076843,-0.07196968048810959,3.098775863647461,0.5129498839378357,-1.7280601263046265,9.297075271606445,-2.0292837619781494,-0.29123738408088684,0.6230437755584717,0.03541106730699539,35.73788070678711,-19.5352783203125,7.372552871704102,-0.37465035915374756,0.24367427825927734,0.20778679847717285,-1.353409767150879,9.053400993347168,-2.2370705604553223
1_20251106_212436,1762435440408,1,0.4224523901939392,0.5131527781486511,0.5977170467376709,0.4482661485671997,-0.07441073656082153,3.1006853580474854,0.5085898637771606,-1.5532909631729126,9.259967803955078,-2.583517551422119,-0.23748129606246948,0.6053286790847778,0.19545762240886688,35.56357192993164,-19.81078338623047,7.509313583374023,-0.15990495681762695,0.1652536392211914,-0.2771575450897217,-1.3933860063552856,9.094714164733887,-2.3063600063323975
1_20251106_212436,1762435440427,1,0.4196627736091614,0.5106824040412903,0.5981440544128418,0.45311176776885986,-0.07441073656082153,3.1006853580474854,0.5085898637771606,-1.5532909631729126,9.259967803955078,-2.583517551422119,-0.23259437084197998,0.4348975121974945,0.4245319068431854,35.38956069946289,-20.08588409423828,7.605525970458984,-0.15990495681762695,0.1652536392211914,-0.2771575450897217,-1.3933860063552856,9.094714164733887,-2.3063600063323975
1_20251106_212436,1762435440445,1,0.4167208969593048,0.5103223919868469,0.596836507320404,0.45793116092681885,-0.07539228349924088,3.106674909591675,0.4982408285140991,-0.5334049463272095,9.700481414794922,-2.490147590637207,-0.23259437084197998,0.4348975121974945,0.4245319068431854,35.21595764160156,-20.348831176757812,7.742549896240234,0.635617733001709,0.4443836212158203,-0.08468127250671387,-1.1690226793289185,9.256097793579102,-2.405466318130493
1_20251106_212436,1762435440465,1,0.4139314591884613,0.5119033455848694,0.5938236713409424,0.4625896215438843,-0.07138525694608688,3.1125175952911377,0.4935947060585022,-0.040220603346824646,9.950664520263672,-2.189688205718994,-0.2106032520532608,0.17589086294174194,0.6713212132453918,34.979705810546875,-20.65288543701172,7.822265625,0.903041660785675,0.5556535720825195,0.1726224422454834,-0.9432622790336609,9.395010948181152,-2.3623106479644775
1_20251106_212436,1762435440484,1,0.41113707423210144,0.514197826385498,0.5902464985847473,0.4670931100845337,-0.07138525694608688,3.1125175952911377,0.4935947060585022,-0.040220603346824646,9.950664520263672,-2.189688205718994,-0.19349902868270874,0.17650172114372253,0.6346693634986877,34.68071746826172,-20.98656463623047,7.953065872192383,0.903041660785675,0.5556535720825195,0.1726224422454834,-0.9432622790336609,9.395010948181152,-2.3623106479644775
1_20251106_212436,1762435440503,1,0.4084283709526062,0.5163840055465698,0.586784303188324,0.47140008211135864,-0.06377437710762024,3.1199936866760254,0.4902478754520416,0.3081207871437073,10.028472900390625,-2.0113279819488525,-0.22831833362579346,0.2693531811237335,0.5503700375556946,34.39260482788086,-21.34442901611328,8.0703125,1.0011065006256104,0.5067691802978516,0.28078627586364746,-0.6929856538772583,9.521703720092773,-2.2921142578125
1_20251106_212436,1762435440523,1,0.4057019054889679,0.5175079107284546,0.5838980078697205,0.47608259320259094,-0.041338998824357986,3.136171340942383,0.48789265751838684,0.7354674339294434,10.016502380371094,-1.7826915979385376,-0.2625267505645752,0.3994673192501068,0.4355274736881256,34.055240631103516,-21.717758178710938,8.158300399780273,0.9456205368041992,0.32452392578125,0.3356069326400757,-0.21015313267707825,9.691978454589844,-2.1182985305786133
1_20251106_212436,1762435440541,1,0.4029332399368286,0.5172648429870605,0.5818668007850647,0.48115792870521545,-0.026590600609779358,3.145439386367798,0.4886283278465271,0.7306791543960571,10.082340240478516,-1.640242576599121,-0.30162209272384644,0.5185859203338623,0.3023589551448822,33.702674865722656,-22.142379760742188,8.271774291992188,0.7526658773422241,0.3122892379760742,0.3824448585510254,-0.021986693143844604,9.770051002502441,-2.0226874351501465
1_20251106_212436,1762435440559,1,0.4002457559108734,0.5155359506607056,0.5807704925537109,0.48655077815055847,-0.011605164036154747,3.154025077819824,0.4903530180454254,0.6732208728790283,9.869264602661133,-1.5911636352539062,-0.30528727173805237,0.6010526418685913,0.2150052785873413,33.42321014404297,-22.57384490966797,8.293313980102539,0.5561660528182983,0.07937049865722656,0.34521913528442383,0.11705481261014938,9.789894104003906,-1.93638277053833
1_20251106_212436,1762435440579,1,0.39754873514175415,0.512904942035675,0.5803574323654175,0.4920048415660858,0.006034547463059425,3.162477493286133,0.49295005202293396,0.7163146138191223,9.589156150817871,-1.6809422969818115,-0.28573960065841675,0.607161283493042,0.21317268908023834,33.093406677246094,-23.022262573242188,8.434274673461914,0.4794078469276428,-0.16059017181396484,0.20435237884521484,0.2369067668914795,9.749746322631836,-1.8852946758270264
1_20251106_212436,1762435440601,1,0.39474648237228394,0.5103042721748352,0.5800389647483826,0.4973123371601105,0.024952005594968796,3.169698715209961,0.4957982897758484,0.9473450779914856,9.483816146850586,-1.759947657585144,-0.29062652587890625,0.5521835088729858,0.26937225461006165,32.72975540161133,-23.434585571289062,8.493457794189453,0.5683506727218628,-0.21274375915527344,0.10027766227722168,0.3789944052696228,9.69655990600586,-1.8602253198623657
1_20251106_212436,1762435440619,1,0.3919612765312195,0.508246660232544,0.5792250037193298,0.502543568611145,0.04557932913303375,3.1767783164978027,0.49878349900245667,1.25259268283844,9.768712997436523,-1.768326997756958,-0.3089524507522583,0.4465039074420929,0.28525474667549133,32.36903381347656,-23.784927368164062,8.63505744934082,0.6988786458969116,0.05772209167480469,0.07351863384246826,0.5537140369415283,9.710990905761719,-1.8418456315994263
1_20251106_212436,1762435440639,1,0.3897284269332886,0.5067452788352966,0.5778182744979858,0.5073923468589783,0.06717614829540253,3.1842761039733887,0.503400444984436,1.211893081665039,9.9650297164917,-1.2559897899627686,-0.3077307343482971,0.36220458149909973,0.15941660106182098,32.36903381347656,-23.784927368164062,8.63505744934082,0.5265432596206665,0.2032308578491211,0.46868467330932617,0.6853498220443726,9.761798858642578,-1.7246744632720947
1_20251106_212436,1762435440656,1,0.3885205388069153,0.50497967004776,0.576671302318573,0.5113683342933655,0.08484923839569092,3.190185546875,0.5090151429176331,0.7917287349700928,9.695693969726562,-0.8657517433166504,-0.30040037631988525,0.4880427122116089,-0.009182061068713665,32.094825744628906,-24.10486602783203,8.80765151977539,0.0851030945777893,-0.05288410186767578,0.6871381998062134,0.7066256403923035,9.748578071594238,-1.5528899431228638
1_20251106_212436,1762435440676,1,0.3874008357524872,0.5015509724617004,0.576840341091156,0.5153856873512268,0.08484923839569092,3.190185546875,0.5090151429176331,0.7917287349700928,9.695693969726562,-0.8657517433166504,-0.29612430930137634,0.6884063482284546,-0.044001348316669464,31.812461853027344,-24.35052490234375,9.008371353149414,0.0851030945777893,-0.05288410186767578,0.6871381998062134,0.7066256403923035,9.748578071594238,-1.5528899431228638
1_20251106_212436,1762435440694,1,0.38537028431892395,0.49682000279426575,0.5779630541801453,0.5202099084854126,0.12068170309066772,3.1998138427734375,0.5222869515419006,0.7258909940719604,9.453889846801758,-1.706080436706543,-0.29612430930137634,0.6884063482284546,-0.044001348316669464,31.593242645263672,-24.554405212402344,9.19881820678711,0.04163360595703125,-0.17768287658691406,-0.17944121360778809,0.6842573881149292,9.631572723388672,-1.5266392230987549
1_20251106_212436,1762435440713,1,0.3829343318939209,0.4924408793449402,0.5784950256347656,0.5255537629127502,0.13810671865940094,3.204009771347046,0.5280814170837402,0.9820594787597656,9.647809982299805,-1.5396904945373535,-0.3358305096626282,0.7042888402938843,0.05679132789373398,31.34109115600586,-24.69774627685547,9.37559700012207,0.23824167251586914,0.012989997863769531,-0.010440945625305176,0.7438178062438965,9.634819984436035,-1.5292495489120483
1_20251106_212436,1762435440733,1,0.38118577003479004,0.4896012544631958,0.5777165293693542,0.530312716960907,0.1563032865524292,3.2085182666778564,0.5352888107299805,0.9976211786270142,9.737589836120605,-1.0644619464874268,-0.3077307343482971,0.3683132231235504,0.15636226534843445,31.025287628173828,-24.895156860351562,9.53535270690918,0.20304268598556519,0.0822153091430664,0.3718301057815552,0.794578492641449,9.655374526977539,-1.436292052268982
1_20251106_212436,1762435440752,1,0.3797699213027954,0.4875309467315674,0.5767452716827393,0.5342782735824585,0.17214910686016083,3.212242364883423,0.5423991680145264,0.9114336371421814,9.602323532104492,-1.0512943267822266,-0.25336378812789917,0.39824560284614563,0.12642991542816162,30.77505111694336,-25.0010986328125,9.73995590209961,0.09348410367965698,-0.042441368103027344,0.3079981803894043,0.8179495334625244,9.64476490020752,-1.3592925071716309
1_20251106_212436,1762435440771,1,0.3782839775085449,0.48544251918792725,0.5760984420776367,0.5379195213317871,0.17214910686016083,3.212242364883423,0.5423991680145264,0.9114336371421814,9.602323532104492,-1.0512943267822266,-0.25336378812789917,0.39824560284614563,0.12642991542816162,30.546451568603516,-25.167160034179688,9.836090087890625,0.09348410367965698,-0.042441368103027344,0.3079981803894043,0.8179495334625244,9.64476490020752,-1.3592925071716309
1_20251106_212436,1762435440790,1,0.37625008821487427,0.48285338282585144,0.5758043527603149,0.5419758558273315,0.205625981092453,3.2186636924743652,0.5557538866996765,1.1771786212921143,9.573593139648438,-1.5779961347579956,-0.3443826138973236,0.5167533159255981,0.14903190732002258,30.345455169677734,-25.269248962402344,9.975074768066406,0.266296923160553,-0.032143592834472656,-0.1619960069656372,0.9108816981315613,9.60573673248291,-1.4160001277923584
1_20251106_212436,1762435440809,1,0.37441423535346985,0.48002931475639343,0.5750051736831665,0.5465847253799438,0.22227495908737183,3.2218708992004395,0.5620775818824768,1.3315980434417725,9.742378234863281,-1.1997284889221191,-0.4482296109199524,0.5136990547180176,0.12215384840965271,30.145160675048828,-25.358779907226562,10.114322662353516,0.33657312393188477,0.1093130111694336,0.17301726341247559,0.9950249195098877,9.633065223693848,-1.3727457523345947
1_20251106_212436,1762435440830,1,0.37312349677085876,0.4767012298107147,0.5737859010696411,0.5516380667686462,0.24017274379730225,3.2248172760009766,0.5704337954521179,1.4058150053024292,9.547259330749512,-0.7041500806808472,-0.4567817449569702,0.4972057044506073,0.06961949169635773,29.967620849609375,-25.483718872070312,10.186178207397461,0.3286319971084595,-0.06864452362060547,0.5348765850067139,1.0771830081939697,9.615903854370117,-1.239026665687561
1_20251106_212436,1762435440847,1,0.37219473719596863,0.47305482625961304,0.5726693272590637,0.5565429329872131,0.24017274379730225,3.2248172760009766,0.5704337954521179,1.4058150053024292,9.547259330749512,-0.7041500806808472,-0.40852341055870056,0.4923187792301178,0.034800201654434204,29.738910675048828,-25.661529541015625,10.200950622558594,0.3286319971084595,-0.06864452362060547,0.5348765850067139,1.0771830081939697,9.615903854370117,-1.239026665687561
1_20251106_212436,1762435440866,1,0.3712971806526184,0.4693858027458191,0.5718523263931274,0.5610706806182861,0.27348488569259644,3.2296159267425537,0.5883755087852478,1.4620763063430786,9.644219398498535,-0.8094903826713562,-0.41463205218315125,0.48376667499542236,0.014641664922237396,29.519073486328125,-25.889450073242188,10.282739639282227,0.25303518772125244,0.03286933898925781,0.25977247953414917,1.2090411186218262,9.611350059509277,-1.0692628622055054
1_20251106_212436,1762435440886,1,0.3705829679965973,0.4656463861465454,0.5710373520851135,0.5654715299606323,0.29122936725616455,3.232578754425049,0.5990995764732361,1.4333471059799194,9.779487609863281,-0.6335241198539734,-0.41463205218315125,0.48376667499542236,0.014641664922237396,29.339813232421875,-26.05152130126953,10.299737930297852,0.1794447898864746,0.13451004028320312,0.3485909700393677,1.2539023160934448,9.644977569580078,-0.9821150898933411
1_20251106_212436,1762435440905,1,0.3702300786972046,0.4616670310497284,0.5701324343681335,0.569861650466919,0.3072861433029175,3.235726833343506,0.6102501153945923,1.2693513631820679,9.817791938781738,-0.4455874264240265,-0.45128393173217773,0.46849504113197327,-0.017123300582170486,29.173233032226562,-26.212127685546875,10.249645233154297,0.012359261512756348,0.13825130462646484,0.42922213673591614,1.2569921016693115,9.679540634155273,-0.8748095631599426
1_20251106_212436,1762435440924,1,0.37011629343032837,0.45740634202957153,0.5694006681442261,0.5740873217582703,0.32214048504829407,3.23873233795166,0.621974766254425,1.1113409996032715,9.684919357299805,-0.4623461067676544,-0.43662315607070923,0.5082012414932251,-0.08309668302536011,28.959033966064453,-26.33959197998047,10.333545684814453,-0.11652088165283203,0.004302978515625,0.32997074723243713,1.2278618812561035,9.68061637878418,-0.7923168540000916
1_20251106_212436,1762435440943,1,0.36988380551338196,0.45283228158950806,0.5689520239830017,0.578292727470398,0.33574193716049194,3.2415401935577393,0.6335980892181396,1.0419120788574219,9.663372993469238,-0.6155683994293213,-0.44395357370376587,0.5143098831176758,-0.04949913173913956,28.81903839111328,-26.460800170898438,10.271709442138672,-0.1487598419189453,-0.013794898986816406,0.14139878749847412,1.1906719207763672,9.677167892456055,-0.7569671869277954
1_20251106_212436,1762435440961,1,0.3694118857383728,0.4483078718185425,0.5683873891830444,0.5826582908630371,0.34742239117622375,3.2442986965179443,0.644581139087677,0.9629067778587341,9.77110767364502,-0.5449424982070923,-0.44395357370376587,0.5143098831176758,-0.04949913173913956,28.630300521850586,-26.585189819335938,10.20791244506836,-0.18221205472946167,0.07515144348144531,0.16961979866027832,1.1451188325881958,9.695956230163574,-0.7145622968673706
1_20251106_212436,1762435440981,1,0.36918124556541443,0.4443986117839813,0.5671738982200623,0.586965799331665,0.3591177761554718,3.2472240924835205,0.65761798620224,0.9365717172622681,9.700481414794922,-0.23969486355781555,-0.4940444827079773,0.40252166986465454,0.05984565243124962,28.465438842773438,-26.708663940429688,10.212677001953125,-0.1668376922607422,0.003620147705078125,0.3798939287662506,1.1034094095230103,9.696861267089844,-0.6195887923240662
1_20251106_212436,1762435441000,1,0.36896198987960815,0.44094881415367126,0.5654354095458984,0.5913662314414978,0.3687359690666199,3.249772548675537,0.6701597571372986,0.9485422372817993,9.716043472290039,-0.05295517295598984,-0.4793837070465088,0.36220458149909973,0.1227647215127945,28.376205444335938,-26.789161682128906,10.167110443115234,-0.12389373779296875,0.015345573425292969,0.4533068835735321,1.072435975074768,9.700697898864746,-0.5062620639801025
1_20251106_212436,1762435441020,1,0.36852896213531494,0.4380435049533844,0.5633535385131836,0.5957659482955933,0.37852704524993896,3.2523539066314697,0.6841738224029541,1.1257054805755615,9.710058212280273,0.017670728266239166,-0.4641121029853821,0.34571126103401184,0.1997336745262146,28.22553253173828,-26.88591766357422,10.091796875,0.042615652084350586,0.007488250732421875,0.41914623975753784,1.083089828491211,9.702569961547852,-0.4014755189418793
1_20251106_212436,1762435441040,1,0.3677386939525604,0.4357191324234009,0.5609129667282104,0.6002447605133057,0.39085862040519714,3.25561261177063,0.7012411952018738,1.5075641870498657,9.816595077514648,0.04759696498513222,-0.4635012149810791,0.3084484934806824,0.25959840416908264,28.070842742919922,-27.04613494873047,10.082744598388672,0.3395794630050659,0.09121990203857422,0.3592579960823059,1.1679847240447998,9.725375175476074,-0.311661034822464
1_20251106_212436,1762435441059,1,0.3667263090610504,0.4338928461074829,0.5580995678901672,0.6047922372817993,0.40270256996154785,3.2589800357818604,0.7170443534851074,1.7972501516342163,9.97819709777832,0.3444652259349823,-0.4580034613609314,0.2241491675376892,0.2260008454322815,27.816844940185547,-27.249969482421875,10.028427124023438,0.5034123659133911,0.2022571563720703,0.5249010324478149,1.2938377857208252,9.77593994140625,-0.18043580651283264
1_20251106_212436,1762435441077,1,0.36629658937454224,0.43245354294776917,0.5551009774208069,0.6088297367095947,0.40270256996154785,3.2589800357818604,0.7170443534851074,1.7972501516342163,9.97819709777832,0.3444652259349823,-0.4580034613609314,0.2241491675376892,0.2260008454322815,27.816844940185547,-27.249969482421875,10.028427124023438,0.5034123659133911,0.2022571563720703,0.5249010324478149,1.2938377857208252,9.77593994140625,-0.18043580651283264
1_20251106_212436,1762435441095,1,0.3663921356201172,0.4302389919757843,0.5524709820747375,0.6127209663391113,0.4157566428184509,3.263551712036133,0.7352474331855774,1.6919097900390625,10.172119140625,0.6090130805969238,-0.4683881402015686,0.33105048537254333,-0.00796032976359129,27.626190185546875,-27.411758422851562,9.936805725097656,0.31845760345458984,0.3169431686401367,0.6315591335296631,1.3734521865844727,9.855175971984863,-0.02254604548215866
1_20251106_212436,1762435441115,1,0.3667115271091461,0.426763117313385,0.5507249236106873,0.616520881652832,0.43697455525398254,3.273169994354248,0.7715665698051453,1.1053556203842163,10.102689743041992,0.823284924030304,-0.458614319562912,0.4611646831035614,-0.0733228549361229,27.409751892089844,-27.600250244140625,9.84367561340332,-0.21869778633117676,0.14653396606445312,0.5323300361633301,1.324053406715393,9.956155776977539,0.29095491766929626
1_20251106_212436,1762435441134,1,0.36677736043930054,0.4221734404563904,0.5497196912765503,0.6205257773399353,0.44554340839385986,3.2781710624694824,0.7912514805793762,0.7953199148178101,9.981788635253906,0.6916095018386841,-0.4622794985771179,0.5191968083381653,-0.053164321929216385,27.218786239624023,-27.77405548095703,9.697725296020508,-0.4229867458343506,0.020505905151367188,0.3205236792564392,1.2183066606521606,9.961282730102539,0.3710858225822449
1_20251106_212436,1762435441153,1,0.3664615750312805,0.417306512594223,0.5488360524177551,0.6247721314430237,0.45185333490371704,3.282853603363037,0.8106640577316284,0.5511217713356018,9.936300277709961,0.630560040473938,-0.47571852803230286,0.5033143162727356,0.06167824938893318,26.95470428466797,-27.95262908935547,9.548831939697266,-0.5337478518486023,-0.01998615264892578,0.2075793743133545,1.084869623184204,9.956286430358887,0.4229806661605835
1_20251106_212436,1762435441172,1,0.365382581949234,0.4128558039665222,0.5475505590438843,0.6294712424278259,0.45185333490371704,3.282853603363037,0.8106640577316284,0.5511217713356018,9.936300277709961,0.630560040473938,-0.4537273943424225,0.419625848531723,0.2522680461406708,26.65337371826172,-28.13452911376953,9.493080139160156,-0.5337478518486023,-0.01998615264892578,0.2075793743133545,1.084869623184204,9.956286430358887,0.4229806661605835
1_20251106_212436,1762435441191,1,0.36373549699783325,0.41012638807296753,0.5452442169189453,0.6341936588287354,0.4599960148334503,3.290595769882202,0.849166214466095,0.7989109754562378,9.696889877319336,0.8161026239395142,-0.3956952691078186,0.30905935168266296,0.4892835319042206,26.36482048034668,-28.31482696533203,9.356721878051758,-0.1427927017211914,-0.1962757110595703,0.268452525138855,0.9417036771774292,9.893165588378906,0.5476500988006592
1_20251106_212436,1762435441210,1,0.3609631061553955,0.4094406068325043,0.5419878959655762,0.6389939188957214,0.4644772410392761,3.292998790740967,0.8685666918754578,1.2908982038497925,9.584367752075195,0.9800984263420105,-0.36698460578918457,0.20704495906829834,0.7165251970291138,25.991979598999023,-28.476112365722656,9.271524429321289,0.27935564517974854,-0.2470378875732422,0.3459586501121521,1.011542558670044,9.831405639648438,0.6341397762298584
1_20251106_212436,1762435441230,1,0.3572169244289398,0.41067391633987427,0.5375948548316956,0.6439990401268005,0.47162356972694397,3.294800043106079,0.8897503018379211,1.88822603225708,9.63344669342041,1.220705270767212,-0.36698460578918457,0.20704495906829834,0.7165251970291138,25.655696868896484,-28.635009765625,9.187797546386719,0.701346755027771,-0.15836715698242188,0.46925240755081177,1.186879277229309,9.791813850402832,0.7514528632164001
1_20251106_212436,1762435441250,1,0.352725088596344,0.41306257247924805,0.532569408416748,0.6491025686264038,0.48233145475387573,3.296597480773926,0.9112903475761414,2.4759774208068848,9.820186614990234,1.2171142101287842,-0.32788926362991333,0.14351503551006317,0.8551915287971497,25.293014526367188,-28.844650268554688,8.993904113769531,1.0312786102294922,0.022698402404785156,0.3725290894508362,1.4446988105773926,9.79748821258545,0.844585120677948
1_20251106_212436,1762435441268,1,0.3480874001979828,0.41549167037010193,0.5274941325187683,0.6541802287101746,0.49493396282196045,3.298879861831665,0.9307364225387573,2.844668388366699,10.100296020507812,1.2626020908355713,-0.32788926362991333,0.14351503551006317,0.8551915287971497,24.86417007446289,-29.146560668945312,8.836259841918945,1.1199755668640137,0.2422466278076172,0.3344135284423828,1.7246928215026855,9.858049392700195,0.9281885623931885
1_20251106_212436,1762435441286,1,0.34432533383369446,0.41708874702453613,0.5228050351142883,0.6589020490646362,0.5096023082733154,3.301877498626709,0.9508530497550964,2.819530487060547,10.194862365722656,1.595381736755371,-0.40913426876068115,0.2614119350910187,0.4617946445941925,24.335128784179688,-29.493309020996094,8.754997253417969,0.8758701086044312,0.26945018768310547,0.5337545871734619,1.9436603784561157,9.92541217803955,1.0616271495819092
1_20251106_212436,1762435441306,1,0.3419156074523926,0.41672784090042114,0.5189555883407593,0.6634129285812378,0.5096023082733154,3.301877498626709,0.9508530497550964,2.819530487060547,10.194862365722656,1.595381736755371,-0.45555996894836426,0.429399698972702,0.2156161665916443,23.818374633789062,-29.839126586914062,8.660709381103516,0.8758701086044312,0.26945018768310547,0.5337545871734619,1.9436603784561157,9.92541217803955,1.0616271495819092
1_20251106_212436,1762435441326,1,0.34029898047447205,0.41376572847366333,0.5163844227790833,0.6680880784988403,0.5285786986351013,3.3053364753723145,0.9773057103157043,2.472385883331299,9.919541358947754,1.9030234813690186,-0.4525056779384613,0.5882245302200317,0.08061505854129791,23.326274871826172,-30.194564819335938,8.431976318359375,0.42298030853271484,-0.004696846008300781,0.6731170415878296,2.049405574798584,9.924238204956055,1.229906439781189
1_20251106_212436,1762435441344,1,0.3387378454208374,0.4089997112751007,0.5148956775665283,0.6729475259780884,0.5442312359809875,3.3069167137145996,1.0005896091461182,2.079753875732422,9.465860366821289,1.8060624599456787,-0.4115777313709259,0.5753963589668274,0.06961949169635773,22.82613182067871,-30.463973999023438,8.312728881835938,0.024278640747070312,-0.3667020797729492,0.4609248638153076,2.0554752349853516,9.832562446594238,1.345137596130371
1_20251106_212436,1762435441364,1,0.3372807502746582,0.4044305980205536,0.5136334300041199,0.6773908138275146,0.5700069665908813,3.305424690246582,1.0436983108520508,1.5889636278152466,9.245603561401367,1.4505388736724854,-0.4115777313709259,0.5753963589668274,0.06961949169635773,22.400009155273438,-30.715789794921875,8.169656753540039,-0.33093559741973877,-0.36990833282470703,0.05328369140625,1.9198992252349854,9.615511894226074,1.3972551822662354
1_20251106_212436,1762435441382,1,0.3356402516365051,0.4009988605976105,0.5120130181312561,0.6814603805541992,0.5799681544303894,3.3036386966705322,1.0621448755264282,1.6799392700195312,9.336578369140625,1.407444953918457,-0.37798017263412476,0.3835848271846771,0.27364829182624817,21.97740936279297,-30.904823303222656,8.027904510498047,-0.19196796417236328,-0.2231464385986328,0.008151769638061523,1.8719072341918945,9.559724807739258,1.3992931842803955
1_20251106_212436,1762435441400,1,0.3335998058319092,0.39866894483566284,0.5097107291221619,0.6855430006980896,0.590967059135437,3.301734447479248,1.082242488861084,2.0258865356445312,9.556835174560547,1.5858054161071777,-0.4470078945159912,0.34571126103401184,0.3383999764919281,21.527027130126953,-31.146484375,7.965211868286133,0.1231834888458252,-0.00231170654296875,0.14920973777770996,1.902703046798706,9.559146881103516,1.4365956783294678
1_20251106_212436,1762435441420,1,0.33156079053878784,0.39668941497802734,0.5065914392471313,0.689978301525116,0.6028753519058228,3.2999069690704346,1.10446035861969,2.201852798461914,9.584367752075195,2.134053945541382,-0.5038183331489563,0.36709150671958923,0.2864764630794525,21.14240837097168,-31.296409606933594,7.92033576965332,0.2393198013305664,0.02017688751220703,0.5579665899276733,1.9625329971313477,9.564190864562988,1.5760873556137085
1_20251106_212436,1762435441439,1,0.3299248218536377,0.3941512703895569,0.5033127665519714,0.6946010589599609,0.6028753519058228,3.2999069690704346,1.10446035861969,2.201852798461914,9.584367752075195,2.134053945541382,-0.47755110263824463,0.46299728751182556,0.20767492055892944,20.81216049194336,-31.35430908203125,7.784656524658203,0.2393198013305664,0.02017688751220703,0.5579665899276733,1.9625329971313477,9.564190864562988,1.5760873556137085
1_20251106_212436,1762435441459,1,0.32822510600090027,0.3906167149543762,0.5007199645042419,0.6992613077163696,0.626445472240448,3.2964046001434326,1.1497745513916016,2.2257938385009766,9.512544631958008,1.989211082458496,-0.47755110263824463,0.46299728751182556,0.20767492055892944,20.455833435058594,-31.439315795898438,7.688016891479492,0.17135977745056152,-0.039374351501464844,0.21345281600952148,2.054434061050415,9.551918983459473,1.7757582664489746
1_20251106_212436,1762435441479,1,0.32639044523239136,0.38663724064826965,0.49872586131095886,0.7037424445152283,0.6383450627326965,3.294245719909668,1.1722079515457153,2.1946706771850586,9.410795211791992,1.967664122581482,-0.4408992528915405,0.4758254289627075,0.16063833236694336,20.065683364868164,-31.465003967285156,7.6993560791015625,0.11218929290771484,-0.1128988265991211,0.1535247564315796,2.0824813842773438,9.523694038391113,1.8141393661499023
1_20251106_212436,1762435441498,1,0.3247247040271759,0.38289397954940796,0.4966203272342682,0.7080355286598206,0.6383450627326965,3.294245719909668,1.1722079515457153,2.1946706771850586,9.410795211791992,1.967664122581482,-0.46594470739364624,0.42329105734825134,0.16552525758743286,20.065683364868164,-31.465003967285156,7.6993560791015625,0.11218929290771484,-0.1128988265991211,0.1535247564315796,2.0824813842773438,9.523694038391113,1.8141393661499023
1_20251106_212436,1762435441516,1,0.3233463764190674,0.3794403672218323,0.4941670298576355,0.7122296690940857,0.6593807935714722,3.289222240447998,1.2147513628005981,2.0570099353790283,9.341365814208984,2.60688853263855,-0.46594470739364624,0.42329105734825134,0.16552525758743286,19.721542358398438,-31.549217224121094,7.603206634521484,-0.03890204429626465,-0.11745643615722656,0.5621364116668701,2.095911979675293,9.458822250366211,2.0447521209716797
1_20251106_212436,1762435441536,1,0.32230329513549805,0.3758682310581207,0.4917953610420227,0.7162268757820129,0.6593807935714722,3.289222240447998,1.2147513628005981,2.0570099353790283,9.341365814208984,2.60688853263855,-0.46166864037513733,0.4092411696910858,0.12459731101989746,19.352537155151367,-31.635696411132812,7.573657989501953,-0.03890204429626465,-0.11745643615722656,0.5621364116668701,2.095911979675293,9.458822250366211,2.0447521209716797
1_20251106_212436,1762435441555,1,0.32117801904678345,0.37140995264053345,0.49001026153564453,0.7202702760696411,0.6753126382827759,3.2828898429870605,1.2585301399230957,1.415391445159912,9.145050048828125,2.1436305046081543,-0.4323471188545227,0.5155316591262817,0.07389554381370544,19.052404403686523,-31.804367065429688,7.450590133666992,-0.48801183700561523,-0.23279953002929688,0.00888824462890625,1.9034032821655273,9.377849578857422,2.134742259979248
1_20251106_212436,1762435441573,1,0.31986570358276367,0.36682409048080444,0.48838382959365845,0.7242977619171143,0.6805725693702698,3.2781498432159424,1.278250813484192,1.4333471059799194,8.855363845825195,1.9521024227142334,-0.4378449320793152,0.4910970628261566,0.23943987488746643,18.78439712524414,-31.83332061767578,7.3314056396484375,-0.3760448694229126,-0.41798877716064453,-0.14611196517944336,1.809391975402832,9.27335262298584,2.0982143878936768
1_20251106_212436,1762435441592,1,0.31756994128227234,0.363158255815506,0.48612478375434875,0.728661835193634,0.6858087778091431,3.272759437561035,1.2963284254074097,1.8966052532196045,8.949931144714355,1.8587325811386108,-0.4378449320793152,0.4910970628261566,0.23943987488746643,18.551143646240234,-31.885543823242188,7.267230987548828,0.06977057456970215,-0.25873661041259766,-0.19158542156219482,1.8268346786499023,9.208667755126953,2.0503180027008057
1_20251106_212436,1762435441612,1,0.31376826763153076,0.36139029264450073,0.4826609492301941,0.7334745526313782,0.6928696036338806,3.2677924633026123,1.3138666152954102,2.5873029232025146,9.264755249023438,2.183133125305176,-0.4720533490180969,0.2302578091621399,0.7098056674003601,18.219497680664062,-31.956947326660156,7.225900650024414,0.6083745956420898,0.04487037658691406,0.10625219345092773,1.9789283275604248,9.219884872436523,2.076880931854248
1_20251106_212436,1762435441631,1,0.30948367714881897,0.36173945665359497,0.47768861055374146,0.7383617162704468,0.7036685347557068,3.263871669769287,1.3336819410324097,3.208571434020996,9.564018249511719,2.825948715209961,-0.5594070553779602,0.10197623074054718,0.7690595984458923,17.875160217285156,-32.04143524169922,7.1567840576171875,0.9837145805358887,0.27530670166015625,0.5992541313171387,2.2248568534851074,9.288711547851562,2.2266945838928223
1_20251106_212436,1762435441649,1,0.3055415749549866,0.36301058530807495,0.4714363217353821,0.7433810830116272,0.7161197662353516,3.262099266052246,1.3541983366012573,3.5317747592926025,9.930315017700195,3.6782476902008057,-0.6699735522270203,0.12091304361820221,0.654827892780304,17.54734230041504,-32.262596130371094,7.099260330200195,1.045534372329712,0.5132827758789062,1.1612424850463867,2.4862403869628906,9.417032241821289,2.517005205154419
1_20251106_212436,1762435441669,1,0.30257630348205566,0.3632510304450989,0.46474239230155945,0.7486726641654968,0.7327723503112793,3.262054443359375,1.3816955089569092,3.6407063007354736,10.017699241638184,4.438373565673828,-0.6913537979125977,0.2803487181663513,0.41842326521873474,17.126054763793945,-32.42665100097656,6.971551895141602,0.9235727787017822,0.4805335998535156,1.5370945930480957,2.7171335220336914,9.537165641784668,2.9012789726257324
1_20251106_212436,1762435441688,1,0.30056002736091614,0.3611064553260803,0.4590902328491211,0.753990650177002,0.7327723503112793,3.262054443359375,1.3816955089569092,3.6407063007354736,10.017699241638184,4.438373565673828,-0.6198826432228088,0.5161424875259399,0.15514054894447327,16.730323791503906,-32.587501525878906,6.682628631591797,0.9235727787017822,0.4805335998535156,1.5370945930480957,2.7171335220336914,9.537165641784668,2.9012789726257324
1_20251106_212436,1762435441707,1,0.29912838339805603,0.35621753334999084,0.45542919635772705,0.7590886354446411,0.7672987580299377,3.2637603282928467,1.4416800737380981,3.1582953929901123,9.590353012084961,4.1223530769348145,-0.6198826432228088,0.5161424875259399,0.15514054894447327,16.322830200195312,-32.725379943847656,6.528905868530273,0.22565126419067383,-0.008862495422363281,0.7119629383087158,2.9326441287994385,9.599215507507324,3.4103901386260986
1_20251106_212436,1762435441728,1,0.29796597361564636,0.3499661386013031,0.45326974987983704,0.7637319564819336,0.783456563949585,3.2638494968414307,1.4717118740081787,2.8686094284057617,9.349745750427246,3.8194994926452637,-0.45983606576919556,0.5778397917747498,-0.000629953108727932,15.889453887939453,-32.89009094238281,6.387189865112305,-0.05122780799865723,-0.19957542419433594,0.3272874355316162,2.919837236404419,9.549321174621582,3.4922120571136475
1_20251106_212436,1762435441745,1,0.29686418175697327,0.3443944752216339,0.451505571603775,0.767728328704834,0.7984130382537842,3.263170003890991,1.5007195472717285,2.7764368057250977,9.270740509033203,3.6662771701812744,-0.42440587282180786,0.43795183300971985,0.08366937935352325,15.457983016967773,-33.029014587402344,6.1784210205078125,-0.11472034454345703,-0.22286510467529297,0.1392521858215332,2.8911571502685547,9.493605613708496,3.527024984359741
1_20251106_212436,1762435441765,1,0.29560714960098267,0.34028732776641846,0.44938886165618896,0.7712785601615906,0.8131008148193359,3.262242317199707,1.5300414562225342,2.80277156829834,9.411992073059082,3.6303658485412598,-0.3920300602912903,0.3487655818462372,0.147810161113739,15.110404014587402,-33.18749237060547,5.972557067871094,-0.0707085132598877,-0.06529045104980469,0.0826725959777832,2.8734800815582275,9.477282524108887,3.5476932525634766
1_20251106_212436,1762435441784,1,0.29421260952949524,0.33724480867385864,0.44704845547676086,0.7745015025138855,0.8262380957603455,3.2611701488494873,1.5571320056915283,2.830303907394409,9.391643524169922,3.7764058113098145,-0.4018039107322693,0.3487655818462372,0.14658844470977783,14.851751327514648,-33.277496337890625,5.757930755615234,-0.03454089164733887,-0.0685110092163086,0.1829700469970703,2.864844799041748,9.46015453338623,3.593435764312744
1_20251106_212436,1762435441802,1,0.29281795024871826,0.3341641128063202,0.44467195868492126,0.7777267098426819,0.8376405239105225,3.259753465652466,1.5825918912887573,2.693840265274048,9.276725769042969,4.03137731552124,-0.4018039107322693,0.3487655818462372,0.14658844470977783,14.559457778930664,-33.31951904296875,5.52937126159668,-0.13680362701416016,-0.1467428207397461,0.3503532409667969,2.830643892288208,9.423468589782715,3.6810240745544434
1_20251106_212436,1762435441822,1,0.29149460792541504,0.33042028546333313,0.4422502815723419,0.7811965346336365,0.8486171960830688,3.2573325634002686,1.6093398332595825,2.6639137268066406,9.058862686157227,4.124747276306152,-0.43479061126708984,0.4623863995075226,0.15514054894447327,14.326796531677246,-33.370933532714844,5.384098052978516,-0.13338422775268555,-0.2916851043701172,0.3549785614013672,2.797297954559326,9.350547790527344,3.769768714904785
1_20251106_212436,1762435441841,1,0.28957539796829224,0.32632961869239807,0.4398963153362274,0.7849498391151428,0.8592866659164429,3.254495143890381,1.635343313217163,2.8853683471679688,9.154626846313477,3.985889434814453,-0.3914192020893097,0.410462886095047,0.2510462999343872,14.17904281616211,-33.417327880859375,5.296323776245117,0.07045626640319824,-0.1567363739013672,0.1728966236114502,2.8149120807647705,9.311363220214844,3.812992811203003
1_20251106_212436,1762435441860,1,0.28698548674583435,0.3231194019317627,0.4374031126499176,0.7886137962341309,0.8592866659164429,3.254495143890381,1.635343313217163,2.8853683471679688,9.154626846313477,3.985889434814453,-0.3553781807422638,0.27424007654190063,0.3286261260509491,13.94467544555664,-33.4942626953125,5.191070556640625,0.07045626640319824,-0.1567363739013672,0.1728966236114502,2.8149120807647705,9.311363220214844,3.812992811203003
1_20251106_212436,1762435441880,1,0.2843600809574127,0.3214804232120514,0.43452876806259155,0.7918171882629395,0.8839905261993408,3.2490670680999756,1.688835859298706,3.459951877593994,9.468254089355469,4.331836700439453,-0.3651520013809204,0.18444296717643738,0.32496094703674316,13.760969161987305,-33.530616760253906,5.115604400634766,0.4563021659851074,0.13258743286132812,0.3786013126373291,3.0036497116088867,9.33566665649414,3.953235387802124
1_20251106_212436,1762435441900,1,0.28206580877304077,0.320486456155777,0.43135327100753784,0.7947714328765869,0.8976451754570007,3.247257709503174,1.7167704105377197,3.4695281982421875,9.48501205444336,4.791502952575684,-0.3706498146057129,0.18688642978668213,0.2150052934885025,13.760969161987305,-33.530616760253906,5.115604400634766,0.37270283699035645,0.119476318359375,0.6706142425537109,3.096825361251831,9.365535736083984,4.120888710021973
1_20251106_212436,1762435441919,1,0.2805871367454529,0.31901833415031433,0.4284382462501526,0.797457754611969,0.9105181097984314,3.2452430725097656,1.744097113609314,3.2971529960632324,9.226449966430664,4.892055511474609,-0.32055890560150146,0.25896844267845154,0.06961949169635773,13.366353034973145,-33.66675567626953,4.867757797241211,0.1602621078491211,-0.11126899719238281,0.6169333457946777,3.1368908882141113,9.337718963623047,4.275122165679932
1_20251106_212436,1762435441936,1,0.2798421382904053,0.31652840971946716,0.42645150423049927,0.7997732758522034,0.9212257862091064,3.242802619934082,1.7681776285171509,3.0302112102508545,9.006193161010742,4.663418769836426,-0.2680245041847229,0.30356159806251526,-0.0036842767149209976,13.366353034973145,-33.66675567626953,4.867757797241211,-0.08534359931945801,-0.26522064208984375,0.3106374740600586,3.1155548095703125,9.271413803100586,4.352781295776367
1_20251106_212436,1762435441955,1,0.27919819951057434,0.31343600153923035,0.4252346158027649,0.8018614649772644,0.9318351745605469,3.2389976978302,1.7942923307418823,2.8386831283569336,8.829029083251953,4.552093505859375,-0.2723005712032318,0.2809595763683319,0.01525252964347601,13.165922164916992,-33.79126739501953,4.735889434814453,-0.2214972972869873,-0.35390758514404297,0.15944957733154297,3.060180425643921,9.182936668395996,4.392643928527832
1_20251106_212436,1762435441974,1,0.2785487771034241,0.310579389333725,0.4238983392715454,0.8039037585258484,0.941352367401123,3.23398494720459,1.8196996450424194,2.8554420471191406,8.673412322998047,4.610749244689941,-0.27046799659729004,0.21315361559391022,0.0763390064239502,12.983513832092285,-33.81425476074219,4.57958984375,-0.16379070281982422,-0.4076194763183594,0.1744842529296875,3.019232749938965,9.081031799316406,4.436264991760254
1_20251106_212436,1762435441994,1,0.2777077555656433,0.30847689509391785,0.4222361743450165,0.8058765530586243,0.941352367401123,3.23398494720459,1.8196996450424194,2.8554420471191406,8.673412322998047,4.610749244689941,-0.2631376087665558,0.13862811028957367,0.106882244348526,12.893165588378906,-33.919464111328125,4.492946624755859,-0.16379070281982422,-0.4076194763183594,0.1744842529296875,3.019232749938965,9.081031799316406,4.436264991760254
1_20251106_212436,1762435442013,1,0.2768670618534088,0.3070699870586395,0.4203348755836487,0.8076950311660767,0.9513773322105408,3.2271828651428223,1.8489060401916504,2.89853572845459,8.730871200561523,4.7783355712890625,-0.28451788425445557,0.14595848321914673,0.07878246158361435,12.74631404876709,-33.953033447265625,4.3784027099609375,-0.0965576171875,-0.28012847900390625,0.27365636825561523,2.99509334564209,9.01099967956543,4.504679203033447
1_20251106_212436,1762435442033,1,0.2765030562877655,0.3055492043495178,0.41826775670051575,0.809467613697052,0.9651620388031006,3.214538812637329,1.898681640625,2.6327905654907227,8.728477478027344,5.246382236480713,-0.29551342129707336,0.2094884216785431,0.034800197929143906,12.626035690307617,-33.95881652832031,4.157238006591797,-0.2596454620361328,-0.17928123474121094,0.5103144645690918,2.8924360275268555,8.907758712768555,4.736067771911621
1_20251106_212436,1762435442053,1,0.2760716378688812,0.30319103598594666,0.41646328568458557,0.8114296197891235,0.9706625938415527,3.2072176933288574,1.9257344007492065,2.577726364135742,8.682989120483398,5.149421215057373,-0.27046799659729004,0.2760726511478424,0.025026366114616394,12.538592338562012,-34.02527618408203,3.9632568359375,-0.251767635345459,-0.17981529235839844,0.33068275451660156,2.829493999481201,8.862804412841797,4.8187384605407715
1_20251106_212436,1762435442070,1,0.27538666129112244,0.3002888262271881,0.4150492548942566,0.8134635090827942,0.9745145440101624,3.2006375789642334,1.947987675666809,2.5609676837921143,8.558496475219727,5.004578590393066,-0.2258748710155487,0.2620227634906769,0.0451848991215229,12.443008422851562,-34.00584411621094,3.8922805786132812,-0.21482110023498535,-0.24344635009765625,0.14867210388183594,2.7757887840270996,8.801942825317383,4.8559064865112305
1_20251106_212436,1762435442091,1,0.274445116519928,0.2976882755756378,0.41391220688819885,0.8153148293495178,0.9784833788871765,3.1918909549713135,1.9741153717041016,2.611243724822998,8.49625015258789,4.859735012054443,-0.19349904358386993,0.2143753468990326,0.0812259167432785,12.367454528808594,-34.07191467285156,3.739339828491211,-0.1316361427307129,-0.2445545196533203,0.003062725067138672,2.742879867553711,8.740804672241211,4.856672286987305
1_20251106_212436,1762435442109,1,0.27331286668777466,0.2957048714160919,0.41281089186668396,0.8169736266136169,0.9813306331634521,3.184926986694336,1.994086742401123,2.6495494842529297,8.632713317871094,4.801079750061035,-0.19349904358386993,0.2143753468990326,0.0812259167432785,12.258275032043457,-34.078392028808594,3.6673450469970703,-0.07466435432434082,-0.08647346496582031,-0.044474124908447266,2.7242138385772705,8.719186782836914,4.845553874969482
1_20251106_212436,1762435442129,1,0.27220767736434937,0.2940841615200043,0.4116626977920532,0.8185055255889893,0.984376847743988,3.1770882606506348,2.016334295272827,2.6794755458831787,8.700944900512695,4.82142972946167,-0.19166645407676697,0.17466914653778076,0.06778689473867416,12.158263206481934,-34.13456726074219,3.621816635131836,-0.03579068183898926,-0.014593124389648438,-0.01929950714111328,2.715266227722168,8.715538024902344,4.840729236602783
1_20251106_212436,1762435442147,1,0.27126795053482056,0.29238975048065186,0.41056370735168457,0.8199752569198608,0.9867585897445679,3.1701018810272217,2.0368032455444336,2.58131742477417,8.74763011932373,4.983031272888184,-0.22220969200134277,0.1991037279367447,0.02258290722966194,12.038900375366211,-34.11591339111328,3.468761444091797,-0.10715913772583008,0.025673866271972656,0.11384153366088867,2.6884765625,8.721956253051758,4.869189739227295
1_20251106_212436,1762435442166,1,0.27065160870552063,0.2902514636516571,0.40942564606666565,0.8215062022209167,0.9886056780815125,3.1633808612823486,2.0567877292633057,2.5370266437530518,8.69136905670166,5.0656280517578125,-0.22220969200134277,0.1991037279367447,0.02258290722966194,11.949862480163574,-34.196144104003906,3.3961639404296875,-0.12116003036499023,-0.02447032928466797,0.1571507453918457,2.658186674118042,8.715839385986328,4.908477306365967
1_20251106_212436,1762435442185,1,0.27006417512893677,0.2875019907951355,0.40808776021003723,0.8233299851417542,0.9901265501976013,3.156863212585449,2.076502799987793,2.5729382038116455,8.667427062988281,5.174559593200684,-0.27046799659729004,0.25347068905830383,0.03663279488682747,11.912599563598633,-34.211082458496094,3.394428253173828,-0.06819891929626465,-0.03872966766357422,0.21286582946777344,2.64113712310791,8.706156730651855,4.96169376373291
1_20251106_212436,1762435442204,1,0.2693111002445221,0.2848510444164276,0.40664026141166687,0.8252121806144714,0.9917324185371399,3.1505355834960938,2.0959837436676025,2.6998255252838135,8.656654357910156,5.23560905456543,-0.2270965874195099,0.1477910876274109,0.061067383736371994,11.827593803405762,-34.21623992919922,3.3504467010498047,0.046950578689575195,-0.03960132598876953,0.2191324234008789,2.6528749465942383,8.696255683898926,5.016476631164551
1_20251106_212436,1762435442223,1,0.2686690092086792,0.28324759006500244,0.40517181158065796,0.8266943693161011,0.9934425950050354,3.144550323486328,2.115541696548462,2.720175266265869,8.705733299255371,5.399604797363281,-0.2270965874195099,0.1477910876274109,0.061067383736371994,11.776426315307617,-34.26910400390625,3.293363571166992,0.05384039878845215,0.007582664489746094,0.3065028190612793,2.666334867477417,8.698150634765625,5.093101978302002
1_20251106_212436,1762435442242,1,0.26821181178092957,0.2824440002441406,0.40386083722114563,0.8277585506439209,0.9934425950050354,3.144550323486328,2.115541696548462,2.720175266265869,8.705733299255371,5.399604797363281,-0.14646245539188385,0.06898953765630722,0.015863394364714622,11.67741584777832,-34.31231689453125,3.207550048828125,0.05384039878845215,0.007582664489746094,0.3065028190612793,2.666334867477417,8.698150634765625,5.093101978302002
1_20251106_212436,1762435442261,1,0.26798728108406067,0.2814987301826477,0.402919739484787,0.8286114931106567,0.9965491890907288,3.134122371673584,2.1548051834106445,2.6375789642333984,8.761995315551758,5.615073204040527,-0.15073850750923157,0.14962367713451385,-0.03422751650214195,11.643157005310059,-34.28837585449219,3.0849609375,-0.025490283966064453,0.04315948486328125,0.33003950119018555,2.663069248199463,8.718835830688477,5.285033702850342
1_20251106_212436,1762435442280,1,0.2678084969520569,0.27965664863586426,0.4022810161113739,0.8296027779579163,0.9979177117347717,3.129105567932129,2.1757078170776367,2.6172289848327637,8.757205963134766,5.527688980102539,-0.15073850750923157,0.14962367713451385,-0.03422751650214195,11.655020713806152,-34.31121063232422,2.9362449645996094,-0.036672353744506836,0.03069591522216797,0.1941242218017578,2.6539013385772705,8.726510047912598,5.333564758300781
1_20251106_212436,1762435442299,1,0.2678118944168091,0.27750110626220703,0.4019835889339447,0.8304691910743713,0.9987139105796814,3.1248228549957275,2.1950197219848633,2.4939329624176025,8.815861701965332,5.496565818786621,-0.09881500154733658,0.14046069979667664,-0.09592484682798386,11.579381942749023,-34.36579895019531,2.8916969299316406,-0.1279747486114502,0.07148075103759766,0.1304006576538086,2.6219077110290527,8.744380950927734,5.3661651611328125
1_20251106_212436,1762435442320,1,0.26809701323509216,0.27568474411964417,0.4018920063972473,0.8310263156890869,0.9987139105796814,3.1248228549957275,2.1950197219848633,2.4939329624176025,8.815861701965332,5.496565818786621,-0.043837182223796844,0.10197623074054718,-0.0727119892835617,11.470102310180664,-34.372406005859375,2.8332176208496094,-0.1279747486114502,0.07148075103759766,0.1304006576538086,2.6219077110290527,8.744380950927734,5.3661651611328125
1_20251106_212436,1762435442341,1,0.26807257533073425,0.2743224501609802,0.4021443724632263,0.8313628435134888,0.9987488389015198,3.1160738468170166,2.2336034774780273,2.4915390014648438,8.642290115356445,5.415165901184082,0.024579668417572975,0.05493964999914169,-0.024453677237033844,11.433629989624023,-34.386268615722656,2.7233524322509766,-0.07251882553100586,-0.07836151123046875,0.02044391632080078,2.5640578269958496,8.720651626586914,5.394721984863281
1_20251106_212436,1762435442357,1,0.2677154839038849,0.2736053168773651,0.4028841555118561,0.8313560485839844,0.9986394047737122,3.112025737762451,2.2493937015533447,2.562164783477783,8.605180740356445,5.283491134643555,0.07894663512706757,-0.007368555758148432,0.01647425815463066,11.433629989624023,-34.386268615722656,2.7233524322509766,-0.001514434814453125,-0.092376708984375,-0.08898496627807617,2.5636792182922363,8.69755744934082,5.372476100921631
1_20251106_212436,1762435442376,1,0.2672845423221588,0.2739047110080719,0.4036494791507721,0.8310248255729675,0.9985517859458923,3.107574939727783,2.2647767066955566,2.5717411041259766,8.55490493774414,5.208076477050781,0.12048542499542236,-0.08128318190574646,0.058013059198856354,11.409653663635254,-34.38732147216797,2.668306350708008,0.006449460983276367,-0.11412239074707031,-0.13151931762695312,2.5652916431427,8.669027328491211,5.339595794677734
1_20251106_212436,1762435442395,1,0.26668447256088257,0.2752184569835663,0.40446287393569946,0.8303878307342529,0.9987456798553467,3.1032798290252686,2.2790658473968506,2.6663079261779785,8.644683837890625,5.221243858337402,0.13514617085456848,-0.12954150140285492,0.08305852115154266,11.372687339782715,-34.40185546875,2.6260223388671875,0.08081293106079102,-0.01947498321533203,-0.0946812629699707,2.5854949951171875,8.664158821105957,5.315925121307373
1_20251106_212436,1762435442414,1,0.26603785157203674,0.2770514190196991,0.40520259737968445,0.8296247720718384,0.9994603395462036,3.0989818572998047,2.2926173210144043,2.7788310050964355,8.584831237792969,5.307431221008301,0.11987456679344177,-0.10877209901809692,0.06412170827388763,11.36040210723877,-34.40278625488281,2.639047622680664,0.15466880798339844,-0.0634622573852539,-0.006795406341552734,2.624162197113037,8.648293495178223,5.3142266273498535
1_20251106_212436,1762435442434,1,0.26546260714530945,0.27867069840431213,0.405899316072464,0.8289257884025574,0.9994603395462036,3.0989818572998047,2.2926173210144043,2.7788310050964355,8.584831237792969,5.307431221008301,0.0929965227842331,-0.03607919439673424,0.02380463480949402,11.334126472473145,-34.43016052246094,2.705120086669922,0.15466880798339844,-0.0634622573852539,-0.006795406341552734,2.624162197113037,8.648293495178223,5.3142266273498535
1_20251106_212436,1762435442453,1,0.2649015486240387,0.2795201241970062,0.4064555764198303,0.8285466432571411,1.0010223388671875,3.0937211513519287,2.3072524070739746,2.835092067718506,8.503432273864746,5.2403974533081055,0.043516479432582855,0.031115921214222908,-0.000629953108727932,11.313192367553711,-34.35748291015625,2.813854217529297,0.16874408721923828,-0.11588859558105469,-0.05906343460083008,2.6663479804992676,8.6193208694458,5.2994608879089355
1_20251106_212436,1762435442471,1,0.26469966769218445,0.2798943817615509,0.4066934883594513,0.828368067741394,1.0050053596496582,3.0841875076293945,2.3278098106384277,3.018240451812744,8.220928192138672,5.004578113555908,0.00991891510784626,0.13251946866512299,-1.9088387489318848e-05,11.365164756774902,-34.29192352294922,2.857685089111328,0.2472372055053711,-0.28465843200683594,-0.22166776657104492,2.771003246307373,8.505586624145508,5.226245880126953
1_20251106_212436,1762435442491,1,0.26392555236816406,0.2793600261211395,0.4069143235683441,0.8286868929862976,1.0086842775344849,3.077505588531494,2.3358960151672363,3.24448299407959,7.974335670471191,4.535334587097168,0.03557523339986801,0.15634319186210632,-0.011625518091022968,11.430027961730957,-34.2130126953125,2.9022693634033203,0.3787837028503418,-0.4250011444091797,-0.5527291297912598,2.865699291229248,8.399336814880371,5.088063716888428
1_20251106_212436,1762435442511,1,0.2631508409976959,0.27908656001091003,0.40731674432754517,0.8288277387619019,1.013649344444275,3.069338798522949,2.3410463333129883,3.288773775100708,7.910891532897949,4.122352600097656,0.03557523339986801,0.15634319186210632,-0.011625518091022968,11.3419189453125,-34.25718688964844,2.9926586151123047,0.33845973014831543,-0.39075660705566406,-0.7725691795349121,2.9503140449523926,8.301648139953613,4.894921779632568
1_20251106_212436,1762435442529,1,0.26326319575309753,0.2802566885948181,0.4076690971851349,0.8282237648963928,1.0185136795043945,3.0612738132476807,2.3432202339172363,3.0900635719299316,8.048553466796875,3.9930715560913086,0.011751508340239525,-0.09227874875068665,-0.14601576328277588,11.280593872070312,-34.261695861816406,3.044271469116211,0.11179971694946289,-0.20247554779052734,-0.7214803695678711,2.9782638549804688,8.251029014587402,4.71455192565918
1_20251106_212436,1762435442549,1,0.26484763622283936,0.2825988531112671,0.40782782435417175,0.8268434405326843,1.023102879524231,3.0528154373168945,2.344714641571045,2.8877620697021484,8.121573448181152,4.491044044494629,-0.0615522563457489,-0.1716911643743515,-0.25597140192985535,11.341733932495117,-34.24584197998047,3.1145687103271484,-0.07240128517150879,-0.10356426239013672,-0.17880630493164062,2.9601633548736572,8.225137710571289,4.6698503494262695
1_20251106_212436,1762435442568,1,0.2679091691970825,0.28476381301879883,0.40784817934036255,0.8251024484634399,1.0268226861953735,3.0451371669769287,2.3467419147491455,2.8063628673553467,8.20895767211914,4.91719388961792,-0.0615522563457489,-0.1716911643743515,-0.25597140192985535,11.41797924041748,-34.1788330078125,3.1728973388671875,-0.12304043769836426,-0.012944221496582031,0.1978745460510254,2.929403305053711,8.221901893615723,4.7193193435668945
1_20251106_212436,1762435442586,1,0.2717195451259613,0.2846387028694153,0.4075072109699249,0.8240674734115601,1.0295816659927368,3.0389702320098877,2.34972882270813,2.690248966217041,8.523781776428223,5.191318035125732,-0.302232950925827,0.0805959701538086,-0.5510191321372986,11.51727294921875,-34.146827697753906,3.1232833862304688,-0.19132351875305176,0.24150371551513672,0.37759923934936523,2.8815724849700928,8.282278060913086,4.813718795776367
1_20251106_212436,1762435442606,1,0.276358425617218,0.28181934356689453,0.40666133165359497,0.8239116668701172,1.0295816659927368,3.0389702320098877,2.34972882270813,2.690248966217041,8.523781776428223,5.191318035125732,-0.42379504442214966,0.1374063789844513,-0.7110656499862671,11.627342224121094,-34.139137268066406,3.0736312866210938,-0.19132351875305176,0.24150371551513672,0.37759923934936523,2.8815724849700928,8.282278060913086,4.813718795776367
1_20251106_212436,1762435442625,1,0.2823792099952698,0.2774518132209778,0.40549489855766296,0.8239274024963379,1.0304737091064453,3.033125162124634,2.3560941219329834,2.23537015914917,8.577648162841797,5.725202560424805,-0.42379504442214966,0.1374063789844513,-0.7110656499862671,11.82310962677002,-34.12535095214844,2.973348617553711,-0.5169618129730225,0.2362957000732422,0.72918701171875,2.7523319721221924,8.341352462768555,4.996015548706055
1_20251106_212436,1762435442644,1,0.2883145213127136,0.2716098427772522,0.404785692691803,0.8241670727729797,1.0232728719711304,3.023503303527832,2.3739943504333496,1.1448582410812378,8.20895767211914,5.98496150970459,-0.2209879457950592,0.19971458613872528,-0.6909070611000061,12.13066577911377,-34.066741943359375,2.8782711029052734,-1.1103743314743042,-0.10465145111083984,0.5976839065551758,2.255232572555542,8.31360912322998,5.387277603149414
1_20251106_212436,1762435442662,1,0.2932415008544922,0.26640307903289795,0.4054057002067566,0.8238234519958496,1.0141462087631226,3.0182228088378906,2.3835675716400146,0.846792995929718,8.159878730773926,5.350525856018066,-0.2209879457950592,0.19971458613872528,-0.6909070611000061,12.51799201965332,-33.878334045410156,2.8428401947021484,-1.1267516613006592,-0.1229848861694336,-0.029401302337646484,1.973544716835022,8.28286361694336,5.379927158355713
1_20251106_212436,1762435442681,1,0.29644066095352173,0.26260116696357727,0.4067046046257019,0.8232586979866028,1.0141462087631226,3.0182228088378906,2.3835675716400146,0.846792995929718,8.159878730773926,5.350525856018066,-0.06338484585285187,0.16672790050506592,-0.49726298451423645,12.8790283203125,-33.728919982910156,2.778604507446289,-1.1267516613006592,-0.1229848861694336,-0.029401302337646484,1.973544716835022,8.28286361694336,5.379927158355713
1_20251106_212436,1762435442700,1,0.29802870750427246,0.2605458199977875,0.4074496626853943,0.8229699730873108,0.9883864521980286,3.0091476440429688,2.3980119228363037,0.9078425168991089,8.474702835083008,5.023731231689453,-0.08843030035495758,-0.02202930860221386,-0.027508001774549484,13.18435287475586,-33.50679016113281,2.578338623046875,-0.6596406698226929,0.14576053619384766,-0.2091960906982422,1.5674831867218018,8.32894229888916,5.232927322387695
1_20251106_212436,1762435442720,1,0.29832857847213745,0.2600303888320923,0.4070416986942291,0.8232261538505554,0.9736355543136597,3.0059146881103516,2.4049904346466064,1.2178783416748047,8.6339111328125,5.337357997894287,-0.08843030035495758,-0.02202930860221386,-0.027508001774549484,13.47286605834961,-33.36133575439453,2.430063247680664,-0.2796839475631714,0.2439746856689453,0.08354473114013672,1.497562289237976,8.389936447143555,5.25381326675415
1_20251106_212436,1762435442739,1,0.29778239130973816,0.2606087625026703,0.4056336283683777,0.8239356875419617,0.9604817032814026,3.004244327545166,2.412322521209717,1.5554462671279907,8.84459114074707,5.6306352615356445,-0.11714094132184982,-0.08617010712623596,0.2504354417324066,13.748699188232422,-33.21734619140625,2.348878860473633,0.04630708694458008,0.3637237548828125,0.30145740509033203,1.5091391801834106,8.480867385864258,5.3291778564453125
1_20251106_212436,1762435442760,1,0.2962908446788788,0.26168766617774963,0.40403419733047485,0.8249167799949646,0.9604817032814026,3.004244327545166,2.412322521209717,1.5554462671279907,8.84459114074707,5.6306352615356445,-0.0664391741156578,-0.0843375027179718,0.2968612015247345,13.912842750549316,-33.1180419921875,2.248971939086914,0.04630708694458008,0.3637237548828125,0.30145740509033203,1.5091391801834106,8.480867385864258,5.3291778564453125
1_20251106_212436,1762435442780,1,0.2943113148212433,0.26312193274497986,0.40266725420951843,0.8258370161056519,0.9402385354042053,3.0056326389312744,2.43015718460083,2.3514840602874756,9.174976348876953,5.874833106994629,-0.014515673741698265,-0.09533306956291199,0.2553223669528961,13.991598129272461,-33.0128173828125,2.254026412963867,0.5913877487182617,0.47315025329589844,0.3660736083984375,1.7600963115692139,8.701826095581055,5.508759498596191
1_20251106_212436,1762435442797,1,0.29250696301460266,0.2646872401237488,0.40174728631973267,0.8264257311820984,0.9340860843658447,3.008345365524292,2.4403467178344727,2.473583221435547,9.178567886352539,6.084316730499268,0.03252091258764267,-0.09594393521547318,0.12642990052700043,13.991598129272461,-33.0128173828125,2.254026412963867,0.5707894563674927,0.3813934326171875,0.4604458808898926,1.9027937650680542,8.797174453735352,5.623870849609375
1_20251106_212436,1762435442816,1,0.29158684611320496,0.26594799757003784,0.40149521827697754,0.8264685869216919,0.9295609593391418,3.0116207599639893,2.451329469680786,2.3838043212890625,9.051679611206055,6.098681449890137,0.03252091258764267,-0.09594393521547318,0.12642990052700043,13.905577659606934,-33.04254913330078,2.1554508209228516,0.38480842113494873,0.20360374450683594,0.3798484802246094,1.9989959001541138,8.848075866699219,5.718832969665527
1_20251106_212436,1762435442835,1,0.2914104461669922,0.2660297155380249,0.40194547176361084,0.8262856602668762,0.925749659538269,3.0148017406463623,2.4621353149414062,2.1767148971557617,8.873320579528809,5.854483604431152,0.06489674746990204,0.06654607504606247,-0.12097030878067017,13.8084716796875,-33.059974670410156,2.002584457397461,0.14217519760131836,0.020195960998535156,0.1085205078125,2.0345396995544434,8.853124618530273,5.745963096618652
1_20251106_212436,1762435442854,1,0.2917766571044922,0.2651507556438446,0.4029567837715149,0.8259463310241699,0.925749659538269,3.0148017406463623,2.4621353149414062,2.1767148971557617,8.873320579528809,5.854483604431152,0.07894663512706757,0.08365029096603394,-0.16983948647975922,13.748332977294922,-33.0628662109375,1.8920021057128906,0.14217519760131836,0.020195960998535156,0.1085205078125,2.0345396995544434,8.853124618530273,5.745963096618652
1_20251106_212436,1762435442873,1,0.29243960976600647,0.2639758586883545,0.40427571535110474,0.8254435062408447,0.9173167943954468,3.0185415744781494,2.481687307357788,1.6583924293518066,8.413653373718262,5.627043724060059,0.10154862701892853,0.06288088858127594,-0.1557895988225937,13.70816421508789,-33.116554260253906,1.9976043701171875,-0.28555190563201904,-0.31650257110595703,-0.0876002311706543,1.9439443349838257,8.730155944824219,5.714643955230713
1_20251106_212436,1762435442892,1,0.2931600511074066,0.2631140649318695,0.40564611554145813,0.8247905373573303,0.9117631912231445,3.018460750579834,2.48974609375,1.509958267211914,8.261627197265625,5.41516637802124,0.10154862701892853,0.06288088858127594,-0.1557895988225937,13.670295715332031,-33.14391326904297,1.9820880889892578,-0.34718894958496094,-0.37482261657714844,-0.23958206176757812,1.857147216796875,8.636449813842773,5.654748439788818
1_20251106_212436,1762435442911,1,0.29315507411956787,0.2624742090702057,0.4071213901042938,0.8242691159248352,0.9056102633476257,3.017230749130249,2.4960811138153076,1.5374904870986938,8.216139793395996,5.1733622550964355,0.13087013363838196,0.04333321750164032,0.0060895588248968124,13.620550155639648,-33.16004943847656,2.0204105377197266,-0.2557253837585449,-0.33624839782714844,-0.38510894775390625,1.7932158708572388,8.552388191223145,5.558471202850342
1_20251106_212436,1762435442930,1,0.2924657166004181,0.2623310685157776,0.4083402454853058,0.8239566087722778,0.8994607329368591,3.015218734741211,2.500537157058716,1.6823334693908691,8.244869232177734,4.989016532897949,0.12170715630054474,-0.008590285666286945,0.10932569950819016,13.631227493286133,-33.18450164794922,2.0338897705078125,-0.08870589733123779,-0.2460155487060547,-0.4555635452270508,1.771039366722107,8.490884780883789,5.444580078125
1_20251106_212436,1762435442950,1,0.2911674380302429,0.26299014687538147,0.4091131389141083,0.8238228559494019,0.8939402103424072,3.0130295753479004,2.5036747455596924,1.8882259130477905,8.3897123336792,5.045278549194336,0.10582467913627625,-0.05379427224397659,0.15636226534843445,13.666078567504883,-33.20763397216797,2.0753822326660156,0.0937492847442627,-0.08093833923339844,-0.3194413185119629,1.7944766283035278,8.470650672912598,5.364719867706299
1_20251106_212436,1762435442969,1,0.2897542715072632,0.26421210169792175,0.4095154106616974,0.8237302899360657,0.889232337474823,3.0110747814178467,2.5067365169525146,2.061798095703125,8.547722816467285,5.339752197265625,0.0722271203994751,-0.05929205194115639,0.1270407736301422,13.716852188110352,-33.155303955078125,2.1865291595458984,0.21385717391967773,0.06165790557861328,-0.019974231719970703,1.8479409217834473,8.486064910888672,5.359726428985596
1_20251106_212436,1762435442989,1,0.2886618673801422,0.26529964804649353,0.40970009565353394,0.8236724138259888,0.8856537938117981,3.009343385696411,2.5098354816436768,2.142000436782837,8.527372360229492,5.422348976135254,0.0722271203994751,-0.05929205194115639,0.1270407736301422,13.80469036102295,-33.08831024169922,2.326444625854492,0.23524761199951172,0.03304576873779297,0.05009794235229492,1.9067528247833252,8.4943265914917,5.372251033782959
1_20251106_212436,1762435443007,1,0.2878401279449463,0.26563844084739685,0.41008278727531433,0.8236603736877441,0.8856537938117981,3.009343385696411,2.5098354816436768,2.142000436782837,8.527372360229492,5.422348976135254,0.08994219452142715,0.024396410211920738,-0.0036842767149209976,13.814675331115723,-33.11370849609375,2.434537887573242,0.23524761199951172,0.03304576873779297,0.05009794235229492,1.9067528247833252,8.4943265914917,5.372251033782959
1_20251106_212436,1762435443026,1,0.2874458432197571,0.26564040780067444,0.4108803868293762,0.8233999013900757,0.883184015750885,3.007638931274414,2.512291431427002,2.2126264572143555,8.474702835083008,5.211668014526367,0.087498739361763,0.0030161445029079914,-0.0574403740465641,13.788597106933594,-33.14081573486328,2.4735774993896484,0.2446988821029663,-0.01569843292236328,-0.12846660614013672,1.9679275751113892,8.490401268005371,5.340134620666504
1_20251106_212436,1762435443045,1,0.28750690817832947,0.2656055688858032,0.4117650091648102,0.8229477405548096,0.8793834447860718,3.003821849822998,2.5140864849090576,1.873861312866211,8.275992393493652,5.016549110412598,0.087498739361763,0.0030161445029079914,-0.0574403740465641,13.753152847290039,-33.118492126464844,2.51318359375,-0.09352827072143555,-0.1542682647705078,-0.20383882522583008,1.9673895835876465,8.43026065826416,5.220387935638428
1_20251106_212436,1762435443064,1,0.28801995515823364,0.26543477177619934,0.4124212861061096,0.8224947452545166,0.8768035173416138,3.001194953918457,2.5145645141601562,1.7565504312515259,8.240081787109375,5.1925153732299805,0.0013668090105056763,0.01706603355705738,-0.09653571248054504,13.754154205322266,-33.10552978515625,2.472898483276367,-0.16867125034332275,-0.1521434783935547,-0.022298336029052734,1.9252216815948486,8.39222526550293,5.214813709259033
1_20251106_212436,1762435443083,1,0.28861311078071594,0.26487115025520325,0.41278696060180664,0.822284996509552,0.8735647201538086,2.99828839302063,2.5152268409729004,1.638042688369751,8.242475509643555,5.29067325592041,-0.027343833819031715,0.04760926961898804,-0.08492928743362427,13.792220115661621,-33.07789611816406,2.4613819122314453,-0.22974324226379395,-0.11979961395263672,0.06068754196166992,1.867785930633545,8.362275123596191,5.22998571395874
1_20251106_212436,1762435443102,1,0.2891106903553009,0.26401084661483765,0.41295111179351807,0.8223044872283936,0.8698335289955139,2.995250940322876,2.5161993503570557,1.536293387413025,8.191001892089844,5.382845878601074,-0.027343833819031715,0.04760926961898804,-0.08492928743362427,13.818805694580078,-33.03849792480469,2.4496383666992188,-0.2651940584182739,-0.13701820373535156,0.12228822708129883,1.8014874458312988,8.328020095825195,5.260557651519775
1_20251106_212436,1762435443121,1,0.28945696353912354,0.26321426033973694,0.4132133722305298,0.8223062753677368,0.8698335289955139,2.995250940322876,2.5161993503570557,1.536293387413025,8.191001892089844,5.382845878601074,0.020914481952786446,0.05738310515880585,-0.023842811584472656,13.869974136352539,-32.985633850097656,2.5067214965820312,-0.2651940584182739,-0.13701820373535156,0.12228822708129883,1.8014874458312988,8.328020095825195,5.260557651519775
1_20251106_212436,1762435443141,1,0.28925657272338867,0.26255178451538086,0.4136386811733246,0.8223747611045837,0.8598741292953491,2.987492799758911,2.518106698989868,1.5470668077468872,8.086858749389648,5.13984489440918,0.05023598670959473,0.03661370649933815,0.028080686926841736,13.892739295959473,-33.009429931640625,2.5342063903808594,-0.15267813205718994,-0.1629619598388672,-0.10234594345092773,1.6997449398040771,8.249820709228516,5.242190837860107
1_20251106_212436,1762435443159,1,0.2886233329772949,0.262317419052124,0.414128839969635,0.822425365447998,0.8550373315811157,2.9834325313568115,2.5180282592773438,1.661983609199524,8.140726089477539,4.963878631591797,0.04290561378002167,0.006070468109101057,0.09344321489334106,13.929803848266602,-32.99475860595703,2.5629749298095703,-0.030209064483642578,-0.08727550506591797,-0.22264957427978516,1.6921926736831665,8.228001594543457,5.186528205871582
1_20251106_212436,1762435443179,1,0.28764262795448303,0.26260438561439514,0.4143131971359253,0.8225844502449036,0.85063636302948,2.9795472621917725,2.517258405685425,1.8355557918548584,8.285569190979004,4.959090232849121,0.04290561378002167,0.006070468109101057,0.09344321489334106,13.91630744934082,-33.020530700683594,2.548440933227539,0.11469054222106934,0.04605388641357422,-0.18195056915283203,1.720865249633789,8.23951530456543,5.141040802001953
1_20251106_212436,1762435443199,1,0.2865985929965973,0.2633090615272522,0.4141077399253845,0.8228270411491394,0.8470988869667053,2.97638201713562,2.5164215564727783,1.9325168132781982,8.412456512451172,5.106327533721924,-0.02917642705142498,-0.03730092570185661,0.11115829646587372,13.924079895019531,-33.08373260498047,2.6692581176757812,0.16932129859924316,0.1383533477783203,-0.027770519256591797,1.763195514678955,8.274103164672852,5.134098052978516
1_20251106_212436,1762435443218,1,0.2858327031135559,0.26389530301094055,0.41358017921447754,0.8231709003448486,0.8470988869667053,2.97638201713562,2.5164215564727783,1.9325168132781982,8.412456512451172,5.106327533721924,-0.02917642705142498,-0.03730092570185661,0.11115829646587372,13.861555099487305,-33.101470947265625,2.788188934326172,0.16932129859924316,0.1383533477783203,-0.027770519256591797,1.763195514678955,8.274103164672852,5.134098052978516
1_20251106_212436,1762435443237,1,0.2853851318359375,0.2637813985347748,0.41332441568374634,0.8234911561012268,0.8424742817878723,2.972745895385742,2.5159685611724854,1.9408961534500122,8.504629135131836,5.296658039093018,-0.04933496564626694,0.05310705304145813,-0.009792924858629704,13.861555099487305,-33.101470947265625,2.788188934326172,0.10913169384002686,0.1440887451171875,0.1101675033569336,1.8317644596099854,8.360540390014648,5.186490535736084
1_20251106_212436,1762435443256,1,0.28521397709846497,0.2630692422389984,0.41328588128089905,0.8237975239753723,0.8424742817878723,2.972745895385742,2.5159685611724854,1.9408961534500122,8.504629135131836,5.296658039093018,-0.04322631657123566,0.06654607504606247,-0.050109997391700745,13.822684288024902,-33.14179229736328,2.812957763671875,0.10913169384002686,0.1440887451171875,0.1101675033569336,1.8317644596099854,8.360540390014648,5.186490535736084
1_20251106_212436,1762435443274,1,0.28540167212486267,0.26211827993392944,0.4133619964122772,0.823997437953949,0.8403419852256775,2.971498489379883,2.516322374343872,1.8606938123703003,8.480688095092773,5.305037498474121,-0.035895936191082,0.06837867200374603,-0.06660334020853043,13.724998474121094,-33.148414611816406,2.8360671997070312,0.023143529891967773,0.09611797332763672,0.09483766555786133,1.8375502824783325,8.384570121765137,5.21019983291626
1_20251106_212436,1762435443292,1,0.28558388352394104,0.2609495520591736,0.4136076867580414,0.8241819143295288,0.8384062647819519,2.9704718589782715,2.5166995525360107,1.7565504312515259,8.380135536193848,5.246382236480713,-0.04566977173089981,0.06776780635118484,-0.06660334020853043,13.650459289550781,-33.189910888671875,2.7377185821533203,-0.06479990482330322,-0.00354766845703125,0.0289459228515625,1.821350336074829,8.383683204650879,5.21743631362915
1_20251106_212436,1762435443312,1,0.28588518500328064,0.25971028208732605,0.41380035877227783,0.8243721723556519,0.8361542224884033,2.9696261882781982,2.5172412395477295,1.65360426902771,8.436397552490234,5.2918701171875,-0.05483274161815643,0.0702112689614296,-0.05621864274144173,13.600687980651855,-33.229278564453125,2.5862865447998047,-0.13419675827026367,0.042171478271484375,0.05954694747924805,1.7878010272979736,8.39422607421875,5.232323169708252
1_20251106_212436,1762435443331,1,0.2861967384815216,0.25835180282592773,0.41395795345306396,0.8246117830276489,0.8301452994346619,2.9678664207458496,2.518854856491089,1.5506579875946045,8.380136489868164,5.313416957855225,-0.05910879373550415,0.06532435119152069,-0.020177625119686127,13.542465209960938,-33.19477081298828,2.503528594970703,-0.15790045261383057,-0.009016990661621094,0.053815364837646484,1.708558440208435,8.389153480529785,5.259601593017578
1_20251106_212436,1762435443350,1,0.2862311601638794,0.2570704519748688,0.4139837622642517,0.8249872326850891,0.826739490032196,2.9671435356140137,2.5200822353363037,1.5769931077957153,8.428017616271973,5.401998519897461,-0.07804560661315918,0.04699840769171715,0.041519712656736374,13.497035026550293,-33.14704895019531,2.4350414276123047,-0.10525226593017578,0.031091690063476562,0.11391782760620117,1.6822453737258911,8.396925926208496,5.28808069229126
1_20251106_212436,1762435443369,1,0.28579413890838623,0.25602638721466064,0.41372430324554443,0.8255933523178101,0.823336660861969,2.966702938079834,2.5221290588378906,1.6212838888168335,8.486673355102539,5.609087944030762,-0.06277398765087128,0.012789979577064514,0.08977802842855453,13.474653244018555,-33.13433074951172,2.2586135864257812,-0.048769235610961914,0.07179832458496094,0.2568058967590332,1.6700531244277954,8.414875030517578,5.3522820472717285
1_20251106_212436,1762435443389,1,0.2850545644760132,0.25546324253082275,0.41332826018333435,0.8262216448783875,0.823336660861969,2.966702938079834,2.5221290588378906,1.6212838888168335,8.486673355102539,5.609087944030762,-0.06277398765087128,0.012789979577064514,0.08977802842855453,13.48692512512207,-33.14501190185547,2.1507110595703125,-0.048769235610961914,0.07179832458496094,0.2568058967590332,1.6700531244277954,8.414875030517578,5.3522820472717285
1_20251106_212436,1762435443408,1,0.2839955985546112,0.2550615072250366,0.41310223937034607,0.8268232345581055,0.8175930380821228,2.9671874046325684,2.527510643005371,1.8259793519973755,8.643486976623535,5.431924819946289,0.012973237782716751,0.028061596676707268,0.09833013266324997,13.439478874206543,-33.13482666015625,2.0679149627685547,0.11549806594848633,0.16163349151611328,0.02492380142211914,1.7104812860488892,8.481853485107422,5.40700101852417
1_20251106_212436,1762435443426,1,0.2828989624977112,0.25470805168151855,0.41314274072647095,0.8272877931594849,0.8175930380821228,2.9671874046325684,2.527510643005371,1.8259793519973755,8.643486976623535,5.431924819946289,-0.0029092440381646156,0.06410261988639832,0.0714520812034607,13.489013671875,-33.13056945800781,1.9617462158203125,0.11549806594848633,0.16163349151611328,0.02492380142211914,1.7104812860488892,8.481853485107422,5.40700101852417
1_20251106_212436,1762435443446,1,0.28210002183914185,0.25432056188583374,0.4133239984512329,0.827589213848114,0.8142536282539368,2.9686927795410156,2.531749963760376,1.8834376335144043,8.529767036437988,5.3624958992004395,-0.018180862069129944,0.07143299281597137,0.054347869008779526,13.47510814666748,-33.168495178222656,1.9063987731933594,0.11203265190124512,0.023195266723632812,-0.024078369140625,1.7714049816131592,8.506571769714355,5.3865742683410645
1_20251106_212436,1762435443464,1,0.2815191447734833,0.25395897030830383,0.41342464089393616,0.8278477191925049,0.8131304979324341,2.9693350791931152,2.533569812774658,1.873861312866211,8.466323852539062,5.330175876617432,-0.0010766498744487762,0.054939646273851395,0.04946095123887062,13.412175178527832,-33.198387145996094,1.9845161437988281,0.08196496963500977,-0.03219795227050781,-0.04511880874633789,1.7918963432312012,8.49852180480957,5.3752946853637695
1_20251106_212436,1762435443484,1,0.2809339463710785,0.253708153963089,0.4135751724243164,0.8280482292175293,0.8123475313186646,2.969970464706421,2.535179853439331,1.903787612915039,8.49625015258789,5.306234359741211,0.00686459057033062,0.04577667638659477,0.0659543052315712,13.359794616699219,-33.276100158691406,1.8998737335205078,0.08951306343078613,-0.0018177032470703125,-0.055248260498046875,1.814274549484253,8.498067855834961,5.361482620239258
1_20251106_212436,1762435443503,1,0.28014075756073,0.25356239080429077,0.4137428104877472,0.8282778263092041,0.8121426701545715,2.970883846282959,2.5364320278167725,1.9971574544906616,8.621939659118652,5.288278579711914,-0.0016875145956873894,0.0445549450814724,0.07450640946626663,13.379034996032715,-33.36267852783203,1.9260387420654297,0.14630627632141113,0.09909725189208984,-0.058563232421875,1.8508511781692505,8.522842407226562,5.346841812133789
1_20251106_212436,1762435443522,1,0.27939650416374207,0.2535434365272522,0.41381949186325073,0.8284966945648193,0.8121426701545715,2.970883846282959,2.5364320278167725,1.9971574544906616,8.621939659118652,5.288278579711914,-0.013293944299221039,0.031115921214222908,0.058013059198856354,13.390615463256836,-33.374305725097656,1.9127483367919922,0.14630627632141113,0.09909725189208984,-0.058563232421875,1.8508511781692505,8.522842407226562,5.346841812133789
1_20251106_212436,1762435443541,1,0.2788970172405243,0.25372323393821716,0.4138464331626892,0.8285964727401733,0.8126154541969299,2.972118616104126,2.5376875400543213,2.094118595123291,8.656654357910156,5.370875358581543,-0.013293944299221039,0.031115921214222908,0.058013059198856354,13.38879680633545,-33.41157531738281,1.8714065551757812,0.19461393356323242,0.10704994201660156,0.019227027893066406,1.8995046615600586,8.549604415893555,5.351648330688477
1_20251106_212436,1762435443560,1,0.27878880500793457,0.25404492020606995,0.41386592388153076,0.8285245895385742,0.8135889172554016,2.973384141921997,2.539430856704712,2.064192295074463,8.559693336486816,5.51212739944458,0.01969275064766407,0.02745073102414608,0.0005917763337492943,13.374299049377441,-33.45030975341797,1.89715576171875,0.13175010681152344,0.008070945739746094,0.12838315963745117,1.9324421882629395,8.55162239074707,5.383744239807129
1_20251106_212436,1762435443580,1,0.27860212326049805,0.25399836897850037,0.41397082805633545,0.8285492062568665,0.8155925273895264,2.9743897914886475,2.543124198913574,1.9648370742797852,8.350210189819336,5.423545837402344,0.01969275064766407,0.02745073102414608,0.0005917763337492943,13.310661315917969,-33.492759704589844,1.9750099182128906,0.01728534698486328,-0.13848018646240234,0.011299610137939453,1.9475517272949219,8.488690376281738,5.412246227264404
1_20251106_212436,1762435443599,1,0.2782355844974518,0.2536594867706299,0.41424334049224854,0.8286400437355042,0.8167637586593628,2.9743075370788574,2.5447916984558105,1.9935662746429443,8.374150276184082,5.3469343185424805,0.03679696470499039,0.03966803103685379,-0.012847247533500195,13.274734497070312,-33.459495544433594,2.177074432373047,0.03681159019470215,-0.09163188934326172,-0.052249908447265625,1.9567546844482422,8.465782165527344,5.399184226989746
1_20251106_212436,1762435443618,1,0.27793270349502563,0.25333064794540405,0.4145737290382385,0.8286770582199097,0.8167637586593628,2.9743075370788574,2.5447916984558105,1.9935662746429443,8.374150276184082,5.3469343185424805,0.01969275064766407,0.02012035623192787,-0.044001348316669464,13.302545547485352,-33.383644104003906,2.287769317626953,0.03681159019470215,-0.09163188934326172,-0.052249908447265625,1.9567546844482422,8.465782165527344,5.399184226989746
1_20251106_212436,1762435443639,1,0.2779409885406494,0.25307968258857727,0.4148710370063782,0.828602135181427,0.8185058832168579,2.9729323387145996,2.548462390899658,1.810417652130127,8.25205135345459,5.512126922607422,0.01663842797279358,0.019509492442011833,-0.08798360824584961,13.302545547485352,-33.383644104003906,2.287769317626953,-0.1162559986114502,-0.15306758880615234,0.08281707763671875,1.9266736507415771,8.405118942260742,5.429309844970703
1_20251106_212436,1762435443656,1,0.2783293128013611,0.25253698229789734,0.41514673829078674,0.8284992575645447,0.8185058832168579,2.9729323387145996,2.548462390899658,1.810417652130127,8.25205135345459,5.512126922607422,0.01663842797279358,0.019509492442011833,-0.08798360824584961,13.325632095336914,-33.38380432128906,2.4644622802734375,-0.1162559986114502,-0.15306758880615234,0.08281707763671875,1.9266736507415771,8.405118942260742,5.429309844970703
1_20251106_212436,1762435443676,1,0.27865925431251526,0.25139009952545166,0.41564905643463135,0.8284853100776672,0.8170202374458313,2.9692416191101074,2.5514419078826904,1.4848203659057617,8.065311431884766,5.278702735900879,0.02580139972269535,0.06532435119152069,-0.09287051856517792,13.30358600616455,-33.335838317871094,2.5321178436279297,-0.30385422706604004,-0.23126697540283203,-0.12090396881103516,1.7886745929718018,8.296578407287598,5.399606704711914
1_20251106_212436,1762435443695,1,0.2787984013557434,0.24995507299900055,0.41624078154563904,0.828575611114502,0.8151093125343323,2.966799736022949,2.5521368980407715,1.4740468263626099,8.123968124389648,5.212864875793457,0.0007559442892670631,0.05371791869401932,-0.026286274194717407,13.291820526123047,-33.3128662109375,2.667318344116211,-0.2517021894454956,-0.13808822631835938,-0.14939355850219727,1.7257490158081055,8.262056350708008,5.362258434295654
1_20251106_212436,1762435443714,1,0.278581827878952,0.2487579882144928,0.4166066646575928,0.8288247585296631,0.8124544024467468,2.963740587234497,2.552478075027466,1.5159435272216797,8.103616714477539,5.233214378356934,-0.0029092440381646156,0.01706603355705738,0.03602192923426628,13.290424346923828,-33.32637023925781,2.761669158935547,-0.16784441471099854,-0.12675189971923828,-0.10323524475097656,1.6837879419326782,8.230368614196777,5.33644962310791
1_20251106_212436,1762435443733,1,0.27809375524520874,0.24817119538784027,0.41679972410202026,0.8290675282478333,0.8097522258758545,2.960865020751953,2.552358388900757,1.5722049474716187,8.188608169555664,5.180544853210449,0.0013668090105056763,-0.0012599086621776223,0.08305852115154266,13.305034637451172,-33.27588653564453,2.817279815673828,-0.08926641941070557,-0.033408164978027344,-0.12472391128540039,1.6614713668823242,8.222016334533691,5.30526876449585
1_20251106_212436,1762435443752,1,0.277389794588089,0.24802301824092865,0.4167732298374176,0.8293609619140625,0.8097522258758545,2.960865020751953,2.552358388900757,1.5722049474716187,8.188608169555664,5.180544853210449,-0.009017891250550747,-0.004925096873193979,0.1227647215127945,13.317628860473633,-33.262939453125,2.858583450317383,-0.08926641941070557,-0.033408164978027344,-0.12472391128540039,1.6614713668823242,8.222016334533691,5.30526876449585
1_20251106_212436,1762435443771,1,0.2764265239238739,0.24816779792308807,0.4166469871997833,0.829702615737915,0.8055031895637512,2.95623517036438,2.551530361175537,1.9229403734207153,8.435199737548828,5.142238616943359,-0.009017891250550747,-0.004925096873193979,0.1227647215127945,13.35246753692627,-33.297691345214844,2.8051986694335938,0.20545423030853271,0.16497516632080078,-0.12406635284423828,1.7174861431121826,8.270224571228027,5.266304969787598
1_20251106_212436,1762435443791,1,0.2751004695892334,0.24847771227359772,0.4162825047969818,0.8302333950996399,0.8055031895637512,2.95623517036438,2.551530361175537,1.9229403734207153,8.435199737548828,5.142238616943359,-0.01940259151160717,-0.0024816379882395267,0.16002745926380157,13.297465324401855,-33.42536163330078,2.6924667358398438,0.20545423030853271,0.16497516632080078,-0.12406635284423828,1.7174861431121826,8.270224571228027,5.266304969787598
1_20251106_212436,1762435443810,1,0.27425116300582886,0.2496255487203598,0.415914386510849,0.8303545117378235,0.8048965334892273,2.955348253250122,2.5505435466766357,2.0713744163513184,8.620742797851562,5.166179656982422,-0.018180862069129944,-0.04218783974647522,0.0763390064239502,13.284377098083496,-33.43898010253906,2.7187442779541016,0.2831106185913086,0.2804145812988281,-0.08010053634643555,1.7882637977600098,8.340328216552734,5.246280193328857
1_20251106_212436,1762435443829,1,0.2739717662334442,0.2507207989692688,0.41569897532463074,0.8302246332168579,0.805925190448761,2.955641269683838,2.549046516418457,2.031871795654297,8.574058532714844,5.2523674964904785,-0.018180862069129944,-0.04218783974647522,0.0763390064239502,13.260808944702148,-33.427879333496094,2.7045116424560547,0.1478649377822876,0.1480550765991211,0.0015969276428222656,1.8840068578720093,8.426003456115723,5.250770568847656
1_20251106_212436,1762435443848,1,0.2739359140396118,0.25091540813446045,0.4156007766723633,0.8302268385887146,0.8066927194595337,2.9563825130462646,2.5482449531555176,1.8989994525909424,8.558496475219727,5.216456413269043,-0.03161988407373428,0.011568250134587288,0.003035235218703747,13.22172737121582,-33.48008728027344,2.661436080932617,0.011994123458862305,0.10599422454833984,-0.027451038360595703,1.88700532913208,8.452502250671387,5.243907451629639
1_20251106_212436,1762435443867,1,0.2743287980556488,0.25066065788269043,0.41550764441490173,0.830220639705658,0.8071066737174988,2.9573447704315186,2.547736406326294,1.772112250328064,8.546525955200195,5.336160659790039,-0.05544360727071762,0.034781113266944885,-0.04400135204195976,13.150726318359375,-33.447181701660156,2.6592845916748047,-0.09191453456878662,0.07521915435791016,0.07380247116088867,1.8640267848968506,8.471306800842285,5.26235818862915
1_20251106_212436,1762435443885,1,0.27485063672065735,0.25010982155799866,0.4153815805912018,0.8302772641181946,0.807084858417511,2.9581806659698486,2.5480234622955322,1.7038804292678833,8.45914077758789,5.564797401428223,-0.07438041269779205,0.01767689734697342,-0.02567540854215622,13.149823188781738,-33.46000671386719,2.686054229736328,-0.12811708450317383,-0.009733200073242188,0.24195146560668945,1.8319975137710571,8.468873977661133,5.322845935821533
1_20251106_212436,1762435443905,1,0.2751043438911438,0.24949738383293152,0.41519418358802795,0.8304712176322937,0.807084858417511,2.9581806659698486,2.5480234622955322,1.7038804292678833,8.45914077758789,5.564797401428223,-0.021846050396561623,-0.0006490439409390092,0.012809070758521557,13.163715362548828,-33.433692932128906,2.646524429321289,-0.12811708450317383,-0.009733200073242188,0.24195146560668945,1.8319975137710571,8.468873977661133,5.322845935821533
1_20251106_212436,1762435443925,1,0.274918794631958,0.24899418652057648,0.41506528854370117,0.8307480812072754,0.8067072033882141,2.9589216709136963,2.549797296524048,1.7362006902694702,8.406471252441406,5.714428424835205,0.027023127302527428,-0.020196715369820595,0.03968711569905281,13.141458511352539,-33.397613525390625,2.6463356018066406,-0.0766373872756958,-0.04992198944091797,0.3132658004760742,1.812838077545166,8.456393241882324,5.401162624359131
1_20251106_212436,1762435443943,1,0.27440398931503296,0.24877873063087463,0.4150153398513794,0.831007719039917,0.8064662218093872,2.9596292972564697,2.5515735149383545,1.8379498720169067,8.492658615112305,5.5181121826171875,0.04168388247489929,-0.05440513789653778,0.018917717039585114,13.132190704345703,-33.348045349121094,2.6333847045898438,0.020089387893676758,0.029012680053710938,0.09355974197387695,1.81786048412323,8.463645935058594,5.4245524406433105
1_20251106_212436,1762435443962,1,0.27421942353248596,0.24914097785949707,0.4152047336101532,0.8308655023574829,0.8060739040374756,2.960982322692871,2.555236339569092,1.7517622709274292,8.467519760131836,5.546841621398926,0.013584103435277939,-0.014698932878673077,-0.018345031887292862,13.136307716369629,-33.284454345703125,2.553607940673828,-0.05896580219268799,-0.00039386749267578125,0.08841562271118164,1.8107280731201172,8.467913627624512,5.458425998687744
1_20251106_212436,1762435443982,1,0.2743012011051178,0.24905812740325928,0.4153536558151245,0.8307889103889465,0.8054324388504028,2.9613261222839355,2.557199239730835,1.6595895290374756,8.353800773620605,5.514521598815918,0.0019776737317442894,0.05066359415650368,-0.04277962073683739,13.184446334838867,-33.293701171875,2.541790008544922,-0.1209108829498291,-0.09129047393798828,0.0448765754699707,1.7805004119873047,8.445091247558594,5.469645023345947
1_20251106_212436,1762435444000,1,0.27429160475730896,0.2481052726507187,0.41565248370170593,0.8309277296066284,0.8041985034942627,2.9608583450317383,2.5587453842163086,1.5973429679870605,8.171849250793457,5.296658515930176,0.03252091258764267,0.06715694069862366,-0.03300578519701958,13.236417770385742,-33.22814178466797,2.585620880126953,-0.14652597904205322,-0.21859359741210938,-0.13838958740234375,1.7438689470291138,8.390442848205566,5.4350481033325195
1_20251106_212436,1762435444019,1,0.27407658100128174,0.2470320761203766,0.41620686650276184,0.8310409188270569,0.8026139140129089,2.9596493244171143,2.5591928958892822,1.572204828262329,8.103616714477539,5.089568614959717,0.04168388247489929,0.031726788729429245,0.021361175924539566,13.273680686950684,-33.21320343017578,2.5873565673828125,-0.13733136653900146,-0.2294607162475586,-0.2763838768005371,1.7095361948013306,8.333077430725098,5.365952491760254
1_20251106_212436,1762435444040,1,0.27358585596084595,0.24654409289360046,0.41671034693717957,0.8310952186584473,0.8007355332374573,2.958051919937134,2.558807611465454,1.6129045486450195,8.205366134643555,5.091962814331055,0.0007559452205896378,-0.01836412213742733,0.09833013266324997,13.273990631103516,-33.20118713378906,2.6416854858398438,-0.07730531692504883,-0.10216903686523438,-0.2191920280456543,1.6902098655700684,8.307535171508789,5.311154842376709
1_20251106_212436,1762435444060,1,0.2728464901447296,0.24677154421806335,0.41673803329467773,0.8312568664550781,0.8007355332374573,2.958051919937134,2.558807611465454,1.6129045486450195,8.205366134643555,5.091962814331055,-0.037728533148765564,-0.06173551455140114,0.147810161113739,13.273990631103516,-33.20118713378906,2.6416854858398438,-0.07730531692504883,-0.10216903686523438,-0.2191920280456543,1.6902098655700684,8.307535171508789,5.311154842376709
1_20251106_212436,1762435444077,1,0.2720104157924652,0.24749717116355896,0.4162929356098175,0.8315381407737732,0.7983863353729248,2.9559478759765625,2.5584774017333984,1.9001964330673218,8.448368072509766,5.498959541320801,-0.037728533148765564,-0.06173551455140114,0.147810161113739,13.223441123962402,-33.230018615722656,2.6932601928710938,0.15258634090423584,0.10047531127929688,0.1506481170654297,1.747610092163086,8.347892761230469,5.348311424255371
1_20251106_212436,1762435444095,1,0.27108970284461975,0.2481810301542282,0.4158225655555725,0.8318702578544617,0.7981151342391968,2.9555280208587646,2.558661699295044,1.958851933479309,8.487869262695312,5.387633800506592,-0.0035201087594032288,0.011568250134587288,0.10138446092605591,13.209535598754883,-33.2679443359375,2.6379127502441406,0.16899347305297852,0.11198139190673828,0.03145790100097656,1.7898584604263306,8.375887870788574,5.356175899505615
1_20251106_212436,1762435444116,1,0.2701667845249176,0.24833987653255463,0.41556766629219055,0.8322504162788391,0.7985663414001465,2.955535888671875,2.5582923889160156,2.0534188747406006,8.532161712646484,5.154209613800049,-0.010850485414266586,0.03294851630926132,0.08000419288873672,13.160508155822754,-33.259910583496094,2.7713775634765625,0.21084833145141602,0.12501907348632812,-0.16157293319702148,1.8425705432891846,8.407142639160156,5.31578254699707
1_20251106_212436,1762435444134,1,0.2692636549472809,0.24835675954818726,0.4154951274394989,0.832574188709259,0.79982590675354,2.956174850463867,2.557737350463867,2.108483076095581,8.614757537841797,5.254761695861816,-0.03895026445388794,-0.009812015108764172,0.054347872734069824,13.08255672454834,-33.352439880371094,2.753070831298828,0.21272993087768555,0.1660919189453125,-0.048816680908203125,1.8957531452178955,8.448665618896484,5.3035783767700195
1_20251106_212436,1762435444153,1,0.2690431773662567,0.2489793449640274,0.4152838885784149,0.8325648903846741,0.8014411926269531,2.9570791721343994,2.557729959487915,2.0701775550842285,8.568073272705078,5.483397483825684,-0.037728533148765564,-0.033635735511779785,0.01341993547976017,12.981148719787598,-33.422119140625,2.8018932342529297,0.13953948020935059,0.09552574157714844,0.14385509490966797,1.930638074874878,8.47254753112793,5.339542388916016
1_20251106_212436,1762435444173,1,0.26917165517807007,0.24960476160049438,0.41506636142730713,0.8324446082115173,0.8014411926269531,2.9570791721343994,2.557729959487915,2.0701775550842285,8.568073272705078,5.483397483825684,-0.02612210251390934,-0.0024816379882395267,-0.028118867427110672,12.86865520477295,-33.4794921875,2.7964229583740234,0.13953948020935059,0.09552574157714844,0.14385509490966797,1.930638074874878,8.47254753112793,5.339542388916016
1_20251106_212436,1762435444192,1,0.2694929540157318,0.2496156394481659,0.41487887501716614,0.8324308395385742,0.8049532771110535,2.959893226623535,2.5592617988586426,1.9696252346038818,8.629121780395508,5.489383697509766,-0.03345248103141785,0.034781113266944885,-0.05377518758177757,12.829573631286621,-33.531700134277344,2.753347396850586,0.02188730239868164,0.10518741607666016,0.08708810806274414,1.9477379322052002,8.523934364318848,5.4022955894470215
1_20251106_212436,1762435444211,1,0.2697243392467499,0.24897025525569916,0.41486814618110657,0.8325545191764832,0.8065531849861145,2.9618008136749268,2.5605196952819824,1.9420931339263916,8.69376277923584,5.556417942047119,-0.03345248103141785,0.034781113266944885,-0.05377518758177757,12.718378067016602,-33.575714111328125,2.667043685913086,-0.004515886306762695,0.1358623504638672,0.12329816818237305,1.9466090202331543,8.557900428771973,5.433119773864746
1_20251106_212436,1762435444229,1,0.27023187279701233,0.24837510287761688,0.4148460030555725,0.832578718662262,0.8076665997505188,2.9637372493743896,2.5624446868896484,1.8140089511871338,8.647077560424805,5.755127906799316,-0.044448040425777435,0.03233765438199043,-0.06660334020853043,12.692893028259277,-33.602012634277344,2.6249866485595703,-0.1060800552368164,0.07134151458740234,0.25760650634765625,1.9200890064239502,8.575736045837402,5.49752140045166
1_20251106_212436,1762435444249,1,0.2708512842655182,0.24790188670158386,0.4149981439113617,0.8324426412582397,0.8076665997505188,2.9637372493743896,2.5624446868896484,1.8140089511871338,8.647077560424805,5.755127906799316,0.027633992955088615,0.01706603355705738,-0.08065322786569595,12.61776065826416,-33.644317626953125,2.607736587524414,-0.1060800552368164,0.07134151458740234,0.25760650634765625,1.9200890064239502,8.575736045837402,5.49752140045166
1_20251106_212436,1762435444269,1,0.2711430788040161,0.24704685807228088,0.415449857711792,0.8323765397071838,0.8075687885284424,2.9665417671203613,2.568887710571289,1.59853994846344,8.331056594848633,5.689290523529053,0.06306415051221848,0.04883100092411041,-0.04949913173913956,12.689664840698242,-33.664398193359375,2.583118438720703,-0.21479320526123047,-0.18015289306640625,0.10051488876342773,1.8133331537246704,8.511209487915039,5.588775634765625
1_20251106_212436,1762435444288,1,0.2708340883255005,0.2457769811153412,0.4161272943019867,0.8325146436691284,0.8065011501312256,2.966665744781494,2.571664571762085,1.575796127319336,8.222125053405762,5.507338523864746,0.08505527675151825,0.03600284084677696,0.005478694103658199,12.74275016784668,-33.574127197265625,2.6680259704589844,-0.19002962112426758,-0.23126697540283203,-0.06514978408813477,1.7658257484436035,8.453392028808594,5.572488307952881
1_20251106_212436,1762435444307,1,0.2701229155063629,0.2449117749929428,0.41685110330581665,0.8326385617256165,0.8065011501312256,2.966665744781494,2.571664571762085,1.575796127319336,8.222125053405762,5.507338523864746,0.09482911229133606,0.009735655970871449,0.05984565243124962,12.74355411529541,-33.561431884765625,2.654773712158203,-0.19002962112426758,-0.23126697540283203,-0.06514978408813477,1.7658257484436035,8.453392028808594,5.572488307952881
1_20251106_212436,1762435444325,1,0.2691130042076111,0.2446010708808899,0.4175408184528351,0.8327113389968872,0.8040536046028137,2.96466326713562,2.575593948364258,1.77809739112854,8.121573448181152,5.340949058532715,0.08566614985466003,0.01401170901954174,0.09527581185102463,12.742242813110352,-33.58641052246094,2.6407299041748047,0.028921961784362793,-0.2146625518798828,-0.1688699722290039,1.7491754293441772,8.336236000061035,5.509819030761719
1_20251106_212436,1762435444344,1,0.26779600977897644,0.24448195099830627,0.41799962520599365,0.8329406976699829,0.803276002407074,2.9628937244415283,2.5766546726226807,1.8906201124191284,8.20776081085205,5.287081718444824,0.06367501616477966,0.025618137791752815,0.09771926701068878,12.730873107910156,-33.562896728515625,2.721864700317383,0.11315572261810303,-0.10278034210205078,-0.1781902313232422,1.7774643898010254,8.310541152954102,5.465271949768066
1_20251106_212436,1762435444364,1,0.266574889421463,0.24457742273807526,0.41828951239585876,0.8331587910652161,0.803276002407074,2.9628937244415283,2.5766546726226807,1.8906201124191284,8.20776081085205,5.287081718444824,0.05267944931983948,0.03294851630926132,0.07511727511882782,12.716980934143066,-33.589210510253906,2.761394500732422,0.11315572261810303,-0.10278034210205078,-0.1781902313232422,1.7774643898010254,8.310541152954102,5.465271949768066
1_20251106_212436,1762435444382,1,0.2656221389770508,0.24476248025894165,0.41857150197029114,0.8332671523094177,0.8034636378288269,2.9585537910461426,2.5767228603363037,1.9863840341567993,8.15389347076416,5.167376518249512,0.05267944931983948,0.03294851630926132,0.07511727511882782,12.705401420593262,-33.57758331298828,2.7746849060058594,0.1350492238998413,-0.09987163543701172,-0.20482635498046875,1.851334810256958,8.253765106201172,5.3722028732299805
1_20251106_212436,1762435444401,1,0.264957994222641,0.2450791746377945,0.4188269078731537,0.8332571387290955,0.8038444519042969,2.955928087234497,2.5756118297576904,1.8774524927139282,8.086858749389648,5.078794956207275,0.0514577180147171,0.019509492442011833,0.02258290722966194,12.73240852355957,-33.51441955566406,2.898632049560547,0.020894169807434082,-0.13352489471435547,-0.2347264289855957,1.8565583229064941,8.220383644104004,5.313521385192871
1_20251106_212436,1762435444420,1,0.26457446813583374,0.24541646242141724,0.419149786233902,0.8331173658370972,0.8038444519042969,2.955928087234497,2.5756118297576904,1.8774524927139282,8.086858749389648,5.078794956207275,0.006253727711737156,0.04699840769171715,0.03907625377178192,12.673592567443848,-33.48072052001953,2.89697265625,0.020894169807434082,-0.13352489471435547,-0.2347264289855957,1.8565583229064941,8.220383644104004,5.313521385192871
1_20251106_212436,1762435444440,1,0.2640046179294586,0.24532581865787506,0.41928327083587646,0.8332576751708984,0.8042818307876587,2.950072765350342,2.5715339183807373,1.8714672327041626,8.15509033203125,5.133859634399414,-0.046280637383461,0.05249618738889694,0.08550197631120682,12.619617462158203,-33.57220458984375,2.9337120056152344,0.02122485637664795,-0.032402992248535156,-0.10023641586303711,1.8502423763275146,8.187493324279785,5.234096050262451
1_20251106_212436,1762435444459,1,0.26322072744369507,0.24515566229820251,0.41901451349258423,0.8336908221244812,0.8042818307876587,2.950072765350342,2.5715339183807373,1.8714672327041626,8.15509033203125,5.133859634399414,-0.05300015211105347,0.009735655970871449,0.1282625049352646,12.607839584350586,-33.56084442138672,2.9740333557128906,0.02122485637664795,-0.032402992248535156,-0.10023641586303711,1.8502423763275146,8.187493324279785,5.234096050262451
1_20251106_212436,1762435444479,1,0.26217520236968994,0.24546173214912415,0.4184403419494629,0.834218442440033,0.8069683313369751,2.9455690383911133,2.568737745285034,2.219808578491211,8.362180709838867,5.478610038757324,-0.0016875145956873894,-0.04707476124167442,0.11421261727809906,12.669883728027344,-33.53216552734375,3.0175628662109375,0.2581648826599121,0.12654685974121094,0.1777486801147461,1.9616436958312988,8.235633850097656,5.300861358642578
1_20251106_212436,1762435444499,1,0.2613494098186493,0.24646729230880737,0.41789641976356506,0.8344537019729614,0.8093348145484924,2.9442129135131836,2.568131446838379,2.2233996391296387,8.40168285369873,5.428333282470703,0.030077451840043068,-0.046463895589113235,0.054958734661340714,12.605231285095215,-33.59919738769531,3.040822982788086,0.20940470695495605,0.13283920288085938,0.10197734832763672,2.0139949321746826,8.268843650817871,5.326355934143066
1_20251106_212436,1762435444516,1,0.2610023319721222,0.2474546730518341,0.4175669550895691,0.8344350457191467,0.8093348145484924,2.9442129135131836,2.568131446838379,2.2233996391296387,8.40168285369873,5.428333282470703,0.030077451840043068,-0.046463895589113235,0.054958734661340714,12.605231285095215,-33.59919738769531,3.040822982788086,0.20940470695495605,0.13283920288085938,0.10197734832763672,2.0139949321746826,8.268843650817871,5.326355934143066
1_20251106_212436,1762435444536,1,0.2608969807624817,0.24774032831192017,0.4173603057861328,0.8344866037368774,0.8140694499015808,2.9423975944519043,2.567382574081421,2.0019454956054688,8.285569190979004,5.406786918640137,-0.03223074972629547,0.034781113266944885,-0.02872973307967186,12.564851760864258,-33.664772033691406,3.078580856323242,-0.024949073791503906,-0.0055751800537109375,0.0589451789855957,2.0268945693969727,8.291144371032715,5.347841739654541
1_20251106_212436,1762435444555,1,0.26093995571136475,0.2474384754896164,0.4172106683254242,0.8346375226974487,0.8160860538482666,2.9412498474121094,2.5671677589416504,1.9265315532684326,8.214942932128906,5.367283821105957,-0.03223074972629547,0.034781113266944885,-0.02872973307967186,12.501313209533691,-33.70709228515625,3.1429176330566406,-0.08029031753540039,-0.06096076965332031,0.015553474426269531,2.006821870803833,8.275903701782227,5.3517303466796875
1_20251106_212436,1762435444574,1,0.26078349351882935,0.24699421226978302,0.4171234965324402,0.8348615765571594,0.8160860538482666,2.9412498474121094,2.5671677589416504,1.9265315532684326,8.214942932128906,5.367283821105957,-0.016959132626652718,0.03294851630926132,-0.015290706418454647,12.475926399230957,-33.733253479003906,3.087343215942383,-0.08029031753540039,-0.06096076965332031,0.015553474426269531,2.006821870803833,8.275903701782227,5.3517303466796875
1_20251106_212436,1762435444593,1,0.26047566533088684,0.24705342948436737,0.417032390832901,0.8349856734275818,0.8192476034164429,2.9389946460723877,2.5663042068481445,2.0354628562927246,8.256839752197266,5.352919578552246,0.0074754562228918076,-0.047074757516384125,0.07939332723617554,12.447944641113281,-33.78614807128906,3.1934375762939453,0.033652544021606445,-0.007987022399902344,0.015700340270996094,2.001810312271118,8.264826774597168,5.33721923828125
1_20251106_212436,1762435444612,1,0.26002368330955505,0.24774464964866638,0.41683101654052734,0.8350222706794739,0.8192476034164429,2.9389946460723877,2.5663042068481445,2.0354628562927246,8.256839752197266,5.352919578552246,-0.0035201087594032288,-0.017753256484866142,0.1276516318321228,12.42457389831543,-33.77477264404297,3.152172088623047,0.033652544021606445,-0.007987022399902344,0.015700340270996094,2.001810312271118,8.264826774597168,5.33721923828125
1_20251106_212436,1762435444632,1,0.2588803768157959,0.24831824004650116,0.4164372682571411,0.8354035019874573,0.8265986442565918,2.938053607940674,2.5658328533172607,2.847062587738037,8.538146018981934,5.325387477874756,-0.0035201087594032288,-0.017753256484866142,0.1276516318321228,12.401203155517578,-33.763397216796875,3.1109066009521484,0.6212115287780762,0.20250415802001953,-0.018681049346923828,2.225851058959961,8.335641860961914,5.34406852722168
1_20251106_212436,1762435444650,1,0.25765976309776306,0.2493935078382492,0.41592228412628174,0.8357170224189758,0.8330652713775635,2.9392459392547607,2.5654306411743164,3.196600914001465,8.84339427947998,5.272716999053955,0.019081884995102882,-0.029359685257077217,0.0916106253862381,12.263322830200195,-33.84693908691406,3.0498619079589844,0.7765998840332031,0.4062013626098633,-0.05708122253417969,2.4200010299682617,8.437192916870117,5.329798221588135
1_20251106_212436,1762435444670,1,0.25714975595474243,0.2514542043209076,0.4153173565864563,0.8355574607849121,0.8425904512405396,2.942241668701172,2.5652472972869873,3.307926654815674,9.008586883544922,5.409180641174316,0.0019776737317442894,-0.0739528089761734,-0.029951460659503937,12.204606056213379,-33.81310272216797,3.0346851348876953,0.7103404998779297,0.45711517333984375,0.06350564956665039,2.597586154937744,8.551471710205078,5.345674991607666
1_20251106_212436,1762435444689,1,0.2579454779624939,0.25398531556129456,0.4147551953792572,0.8348255753517151,0.8526858687400818,2.945995807647705,2.5657849311828613,3.1439309120178223,8.934369087219238,5.601905822753906,0.00686459057033062,-0.10632863640785217,-0.20954568684101105,12.182954788208008,-33.76460266113281,3.048276901245117,0.4370758533477783,0.3063182830810547,0.2049846649169922,2.706855058670044,8.628050804138184,5.396921157836914
1_20251106_212436,1762435444710,1,0.26017963886260986,0.2560751438140869,0.414507657289505,0.8336158990859985,0.8526858687400818,2.945995807647705,2.5657849311828613,3.1439309120178223,8.934369087219238,5.601905822753906,0.011140644550323486,-0.0892244279384613,-0.37386828660964966,12.221219062805176,-33.73670196533203,3.0097274780273438,0.4370758533477783,0.3063182830810547,0.2049846649169922,2.706855058670044,8.628050804138184,5.396921157836914
